current_image,trial_index,is_blank_trial,is_repeat,is_new_run,run_num,all_blanks_list,practice.thisRepN,practice.thisTrialN,practice.thisN,practice.thisIndex,loop_all_images.thisRepN,loop_all_images.thisTrialN,loop_all_images.thisN,loop_all_images.thisIndex,thisRow.t,notes,set_up.started,set_up.stopped,practice_continue.started,key_resp_6.started,text_6.started,practice_continue.stopped,key_resp_6.keys,key_resp_6.rt,key_resp_6.duration,set_skips_and_correct_key_2.started,set_skips_and_correct_key_2.stopped,practice_trial.started,polygon_3.started,all_keys_pressed_2.started,image_2.started,press_if_repeat_2.started,image_2.stopped,press_if_repeat_2.stopped,polygon_3.stopped,all_keys_pressed_2.stopped,practice_trial.stopped,press_if_repeat_2.keys,press_if_repeat_2.corr,press_if_repeat_2.rt,press_if_repeat_2.duration,all_keys_pressed_2.keys,blank_trial_2.started,blank_trial_2.stopped,polygon_4.started,polygon_4.stopped,testing_continue.started,key_resp_7.started,text_7.started,testing_continue.stopped,key_resp_7.keys,key_resp_7.rt,key_resp_7.duration,waiting_fmri.started,key_resp_2.started,text_3.started,waiting_fmri.stopped,key_resp_2.keys,key_resp_2.rt,key_resp_2.duration,set_skips_and_correct_key.started,set_skips_and_correct_key.stopped,trial.started,polygon.started,all_keys_pressed.started,image.started,press_if_repeat.started,image.stopped,press_if_repeat.stopped,polygon.stopped,all_keys_pressed.stopped,trial.stopped,press_if_repeat.keys,press_if_repeat.corr,press_if_repeat.rt,press_if_repeat.duration,all_keys_pressed.keys,blank_trial.started,blank_trial.stopped,blank_trial_testing_keys.keys,run_wait2_2.started,run_wait2_2.stopped,key_resp_5.keys,waiting_fmri_2.started,waiting_fmri_2.stopped,key_resp_4.keys,blank_trial_testing_keys.started,polygon_2.started,blank_trial_testing_keys.stopped,polygon_2.stopped,all_keys_pressed.rt,all_keys_pressed.duration,key_resp_5.started,text_5.started,key_resp_5.rt,key_resp_5.duration,key_resp_4.started,text_4.started,key_resp_4.rt,key_resp_4.duration,participant,session,starting_run,,date,expName,psychopyVersion,frameRate,expStart,
,,,,,,,,,,,,,,,,,0.008619881000413443,0.008846542001265334,0.008865012001479045,0.029961866001031012,0.029961866001031012,1.6683910110004945,1,1.6275973599986173,None,,,,,,,,,,,,,,,,,,,,,,,,,,,,,,,,,,,,,,,,,,,,,,,,,,,,,,,,,,,,,,,,,,,,,,,,,,,,2,001,0,,2024-05-30_13h54.26.491,replicate_nsd,2023.2.3,59.979858883651204,2024-05-30 13h54.39.749683 -0400,
practice_images/w_boardwalk2.jpg,0,0,,,,,0,0,0,0,,,,,1.7017443230015488,,,,,,,,,,,1.6746832560002076,1.674763980001444,1.67477282100117,1.7017443230015488,1.7017443230015488,2.685332710001603,2.685332710001603,5.685609784000917,5.685609784000917,5.685609784000917,5.685609784000917,5.669170842000312,1,0,1.5822194400006993,None,None,5.67019751800035,5.670241516001624,,,,,,,,,,,,,,,,,,,,,,,,,,,,,,,,,,,,,,,,,,,,,,,,,,,,,,,,,2,001,0,,2024-05-30_13h54.26.491,replicate_nsd,2023.2.3,59.979858883651204,2024-05-30 13h54.39.749683 -0400,
practice_images/w_boardwalk2.jpg,1,0,,,,,0,1,1,1,,,,,5.685609784000917,,,,,,,,,,,5.670529748000263,5.670648575000087,5.6706602740014205,5.685609784000917,5.685609784000917,6.685692556000504,6.685692556000504,9.685692217000906,9.685692217000906,9.685692217000906,9.685692217000906,9.66933392500141,2,0,1.0898591599998326,None,None,9.669934154000657,9.669975001001148,,,,,,,,,,,,,,,,,,,,,,,,,,,,,,,,,,,,,,,,,,,,,,,,,,,,,,,,,2,001,0,,2024-05-30_13h54.26.491,replicate_nsd,2023.2.3,59.979858883651204,2024-05-30 13h54.39.749683 -0400,
practice_images/w_monument2.jpg,2,0,,,,,0,2,2,2,,,,,9.685692217000906,,,,,,,,,,,9.670249378001245,9.670384414001091,9.67039714800012,9.685692217000906,9.685692217000906,10.685709679000865,10.685709679000865,13.68530377100069,13.68530377100069,13.68530377100069,13.68530377100069,13.669658927001365,1,0,2.409890764998636,None,None,13.67044948900002,13.670490526001231,,,,,,,,,,,,,,,,,,,,,,,,,,,,,,,,,,,,,,,,,,,,,,,,,,,,,,,,,2,001,0,,2024-05-30_13h54.26.491,replicate_nsd,2023.2.3,59.979858883651204,2024-05-30 13h54.39.749683 -0400,
practice_images/w_boardwalk1.jpg,3,0,,,,,0,3,3,3,,,,,13.68530377100069,,,,,,,,,,,13.67075976400156,13.67087693600115,13.670889024000644,13.68530377100069,13.68530377100069,14.685894904001543,14.685894904001543,17.686096565001208,17.686096565001208,17.686096565001208,17.686096565001208,17.669788781000534,2,0,1.0926870469993446,None,None,17.67037826900014,17.670418346000588,,,,,,,,,,,,,,,,,,,,,,,,,,,,,,,,,,,,,,,,,,,,,,,,,,,,,,,,,2,001,0,,2024-05-30_13h54.26.491,replicate_nsd,2023.2.3,59.979858883651204,2024-05-30 13h54.39.749683 -0400,
practice_images/w_kitchen2.jpg,4,0,,,,,0,4,4,4,,,,,17.686096565001208,,,,,,,,,,,17.67068859400024,17.67080649700074,17.67081876800148,17.686096565001208,17.686096565001208,18.68579595400115,18.68579595400115,21.685853153001517,21.685853153001517,21.685853153001517,21.685853153001517,21.669809020000685,1,0,1.0098013070000889,None,None,21.67040480600008,21.67044586100019,,,,,,,,,,,,,,,,,,,,,,,,,,,,,,,,,,,,,,,,,,,,,,,,,,,,,,,,,2,001,0,,2024-05-30_13h54.26.491,replicate_nsd,2023.2.3,59.979858883651204,2024-05-30 13h54.39.749683 -0400,
practice_images/w_auditorium2.jpg,5,0,,,,,0,5,5,5,,,,,21.685853153001517,,,,,,,,,,,21.67071827000109,21.670835253000405,21.670847121000406,21.685853153001517,21.685853153001517,22.68619885100088,22.68619885100088,25.68633441900056,25.68633441900056,25.68633441900056,25.68633441900056,25.66993777600146,1,0,1.1172335139999632,None,None,25.670532183999967,25.670572297000035,,,,,,,,,,,,,,,,,,,,,,,,,,,,,,,,,,,,,,,,,,,,,,,,,,,,,,,,,2,001,0,,2024-05-30_13h54.26.491,replicate_nsd,2023.2.3,59.979858883651204,2024-05-30 13h54.39.749683 -0400,
practice_images/w_auditorium2.jpg,6,0,,,,,0,6,6,6,,,,,25.68633441900056,,,,,,,,,,,25.670842841000194,25.670960642000864,25.670972739000717,25.68633441900056,25.68633441900056,26.686298911999984,26.686298911999984,29.686427787000866,29.686427787000866,29.686427787000866,29.686427787000866,29.670037478001177,2,0,0.8451752179989853,None,None,29.67063168599998,29.670672487000047,,,,,,,,,,,,,,,,,,,,,,,,,,,,,,,,,,,,,,,,,,,,,,,,,,,,,,,,,2,001,0,,2024-05-30_13h54.26.491,replicate_nsd,2023.2.3,59.979858883651204,2024-05-30 13h54.39.749683 -0400,
practice_images/w_auditorium1.jpg,7,0,,,,,0,7,7,7,,,,,29.686427787000866,,,,,,,,,,,29.670943855000587,29.67106229500132,29.671074343001237,29.686427787000866,29.686427787000866,30.686334097001236,30.686334097001236,33.68650541200077,33.68650541200077,33.68650541200077,33.68650541200077,33.67016383600094,1,0,1.0971559749996231,None,None,33.67075775500052,33.67079846600063,,,,,,,,,,,,,,,,,,,,,,,,,,,,,,,,,,,,,,,,,,,,,,,,,,,,,,,,,2,001,0,,2024-05-30_13h54.26.491,replicate_nsd,2023.2.3,59.979858883651204,2024-05-30 13h54.39.749683 -0400,
practice_images/w_kitchen1.jpg,8,0,,,,,0,8,8,8,,,,,33.68650541200077,,,,,,,,,,,33.67106756600151,33.67118606400072,33.67119816300146,33.68650541200077,33.68650541200077,34.68633390700052,34.68633390700052,37.686600124001416,37.686600124001416,37.686600124001416,37.686600124001416,37.67023595300088,2,0,1.1062423599996691,None,None,37.67083622500104,37.67087668500062,,,,,,,,,,,,,,,,,,,,,,,,,,,,,,,,,,,,,,,,,,,,,,,,,,,,,,,,,2,001,0,,2024-05-30_13h54.26.491,replicate_nsd,2023.2.3,59.979858883651204,2024-05-30 13h54.39.749683 -0400,
practice_images/w_bedroom2.jpg,9,0,,,,,0,9,9,9,,,,,37.686600124001416,,,,,,,,,,,37.671147902001394,37.67126536200158,37.671277460000056,37.686600124001416,37.686600124001416,38.68657208500008,38.68657208500008,41.68667320300119,41.68667320300119,41.68667320300119,41.68667320300119,41.670551334000265,1,0,1.4989824760014017,None,None,41.67114450900044,41.671185456001695,,,,,,,,,,,,,,,,,,,,,,,,,,,,,,,,,,,,,,,,,,,,,,,,,,,,,,,,,2,001,0,,2024-05-30_13h54.26.491,replicate_nsd,2023.2.3,59.979858883651204,2024-05-30 13h54.39.749683 -0400,
blank.jpg,10,1,,,,,0,10,10,10,,,,,41.68667320300119,,,,,,,,,,,41.67145635600173,41.67157333400064,41.67158542300058,,,,,,,,,41.67483989700122,None,0,,,None,41.67523160100063,45.72036019799998,41.68667320300119,45.73672201299996,,,,,,,,,,,,,,,,,,,,,,,,,,,,,,,,,,,,,,,,,,,,,,,,,,,,,,,2,001,0,,2024-05-30_13h54.26.491,replicate_nsd,2023.2.3,59.979858883651204,2024-05-30 13h54.39.749683 -0400,
practice_images/w_kitchen1.jpg,11,0,,,,,0,11,11,11,,,,,45.73672201299996,,,,,,,,,,,45.72074776900081,45.72086281000156,45.720875081000486,45.73672201299996,45.73672201299996,46.73684630400021,46.73684630400021,49.73665215500114,49.73665215500114,49.73665215500114,49.73665215500114,49.72052510499998,2,0,0.8845874779999576,None,None,49.72112145700157,49.72116379500039,,,,,,,,,,,,,,,,,,,,,,,,,,,,,,,,,,,,,,,,,,,,,,,,,,,,,,,,,2,001,0,,2024-05-30_13h54.26.491,replicate_nsd,2023.2.3,59.979858883651204,2024-05-30 13h54.39.749683 -0400,
practice_images/w_monument1.jpg,12,0,,,,,0,12,12,12,,,,,49.73665215500114,,,,,,,,,,,49.721435170000404,49.72155361100158,49.72156546900078,49.73665215500114,49.73665215500114,50.73686251500112,50.73686251500112,53.73700867300067,53.73700867300067,53.73700867300067,53.73700867300067,53.72078943500128,1,0,2.3407156620014575,None,None,53.72138332800023,53.72142377900127,,,,,,,,,,,,,,,,,,,,,,,,,,,,,,,,,,,,,,,,,,,,,,,,,,,,,,,,,2,001,0,,2024-05-30_13h54.26.491,replicate_nsd,2023.2.3,59.979858883651204,2024-05-30 13h54.39.749683 -0400,
practice_images/w_boardwalk1.jpg,13,0,,,,,0,13,13,13,,,,,53.73700867300067,,,,,,,,,,,53.72169272100109,53.721810102000745,53.721822017001614,53.73700867300067,53.73700867300067,54.73714053700132,54.73714053700132,57.73721001500053,57.73721001500053,57.73721001500053,57.73721001500053,57.720793949001745,2,0,0.891432012000223,None,None,57.72139061600137,57.7214309330011,,,,,,,,,,,,,,,,,,,,,,,,,,,,,,,,,,,,,,,,,,,,,,,,,,,,,,,,,2,001,0,,2024-05-30_13h54.26.491,replicate_nsd,2023.2.3,59.979858883651204,2024-05-30 13h54.39.749683 -0400,
practice_images/w_monument2.jpg,14,0,,,,,0,14,14,14,,,,,57.73721001500053,,,,,,,,,,,57.72170305899999,57.721820105000006,57.7218321750006,57.73721001500053,57.73721001500053,58.73698154900012,58.73698154900012,61.73703906200171,61.73703906200171,61.73703906200171,61.73703906200171,61.72084332700069,1,0,2.2325725150003564,None,None,61.72143979900102,61.72148030700009,,,,,,,,,,,,,,,,,,,,,,,,,,,,,,,,,,,,,,,,,,,,,,,,,,,,,,,,,2,001,0,,2024-05-30_13h54.26.491,replicate_nsd,2023.2.3,59.979858883651204,2024-05-30 13h54.39.749683 -0400,
practice_images/w_bedroom1.jpg,15,0,,,,,0,15,15,15,,,,,61.73703906200171,,,,,,,,,,,61.72175153900025,61.72186886200143,61.7218808130001,61.73703906200171,61.73703906200171,62.73715942900162,62.73715942900162,65.73723032000089,65.73723032000089,65.73723032000089,65.73723032000089,65.72079456300162,2,0,0.97643896199952,None,None,65.72139562200027,65.721436146001,,,,,,,,,,,,,,,,,,,,,,,,,,,,,,,,,,,,,,,,,,,,,,,,,,,,,,,,,2,001,0,,2024-05-30_13h54.26.491,replicate_nsd,2023.2.3,59.979858883651204,2024-05-30 13h54.39.749683 -0400,
practice_images/w_kitchen2.jpg,16,0,,,,,0,16,16,16,,,,,65.73723032000089,,,,,,,,,,,65.72170712200023,65.72182430900102,65.72183629100073,65.73723032000089,65.73723032000089,66.73718248200021,66.73718248200021,69.7374155510006,69.7374155510006,69.7374155510006,69.7374155510006,69.72104134000074,2,0,0.9764092060013354,None,None,69.72164395900109,69.72168478500134,,,,,,,,,,,,,,,,,,,,,,,,,,,,,,,,,,,,,,,,,,,,,,,,,,,,,,,,,2,001,0,,2024-05-30_13h54.26.491,replicate_nsd,2023.2.3,59.979858883651204,2024-05-30 13h54.39.749683 -0400,
practice_images/w_monument1.jpg,17,0,,,,,0,17,17,17,,,,,69.7374155510006,,,,,,,,,,,69.72195858800114,69.72207791000073,69.72209002100135,69.7374155510006,69.7374155510006,70.73734535800031,70.73734535800031,73.73757952000051,73.73757952000051,73.73757952000051,73.73757952000051,73.72120584500044,2,0,0.994249168999886,None,None,73.72180347300127,73.72184901200126,,,,,,,,,,,,,,,,,,,,,,,,,,,,,,,,,,,,,,,,,,,,,,,,,,,,,,,,,2,001,0,,2024-05-30_13h54.26.491,replicate_nsd,2023.2.3,59.979858883651204,2024-05-30 13h54.39.749683 -0400,
practice_images/w_bedroom1.jpg,18,0,,,,,0,18,18,18,,,,,73.73757952000051,,,,,,,,,,,73.72212165900055,73.7222396950001,73.72225158700167,73.73757952000051,73.73757952000051,74.73733268000069,74.73733268000069,77.73766609700033,77.73766609700033,77.73766609700033,77.73766609700033,77.7211849610012,2,0,1.935104615000455,None,None,77.72178111700123,77.72182150500157,,,,,,,,,,,,,,,,,,,,,,,,,,,,,,,,,,,,,,,,,,,,,,,,,,,,,,,,,2,001,0,,2024-05-30_13h54.26.491,replicate_nsd,2023.2.3,59.979858883651204,2024-05-30 13h54.39.749683 -0400,
practice_images/w_bedroom2.jpg,19,0,,,,,0,19,19,19,,,,,77.73766609700033,,,,,,,,,,,77.7220947700007,77.72221350000109,77.72222537900052,77.73766609700033,77.73766609700033,78.73749067400058,78.73749067400058,81.7414029470001,81.7414029470001,81.7414029470001,81.7414029470001,81.72140346500055,2,0,1.2030915699997422,None,None,81.72199564100083,81.72203574300147,,,,,,,,,,,,,,,,,,,,,,,,,,,,,,,,,,,,,,,,,,,,,,,,,,,,,,,,,2,001,0,,2024-05-30_13h54.26.491,replicate_nsd,2023.2.3,59.979858883651204,2024-05-30 13h54.39.749683 -0400,
,,,,,,,,,,,,,,,,,,,,,,,,,,,,,,,,,,,,,,,,,,,,,,,81.72209543200006,81.7414029470001,81.7414029470001,88.65461799900004,1,6.898030939999444,None,,,,,,,,,,,,,,,,,,,,,,,,,,,,,,,,,,,,,,,,,,,,,,,,2,001,0,,2024-05-30_13h54.26.491,replicate_nsd,2023.2.3,59.979858883651204,2024-05-30 13h54.39.749683 -0400,
,,,,,,,,,,,,,,,,,,,,,,,,,,,,,,,,,,,,,,,,,,,,,,,,,,,,,,88.65465297900118,88.67125332600153,88.67125332600153,110.13795052700152,equal,21.456307116999596,None,,,,,,,,,,,,,,,,,,,,,,,,,,,,,,,,,,,,,,,,,2,001,0,,2024-05-30_13h54.26.491,replicate_nsd,2023.2.3,59.979858883651204,2024-05-30 13h54.39.749683 -0400,
images/image_140_seed_1.png,0,0,0,0,0,"[9, 19, 29, 39, 49, 59, 68, 69, 70, 71]",,,,,0,0,0,0,110.23737069100025,,,,,,,,,,,,,,,,,,,,,,,,,,,,,,,,,,,,,,,,,,,,,,110.21445283900175,110.2145526610002,110.21456014200157,110.23737069100025,110.23737069100025,111.22179433900055,111.22179433900055,114.23281889800091,114.23281889800091,114.23281889800091,114.23281889800091,114.20570337000026,1,1,0.9116520509996917,None,None,114.20872950300145,114.20877153700167,None,114.20946601900141,114.20951736400093,None,114.21021802400173,114.21025470000131,None,,,,,,,,,,,,,,,2,001,0,,2024-05-30_13h54.26.491,replicate_nsd,2023.2.3,59.979858883651204,2024-05-30 13h54.39.749683 -0400,
images/image_620_seed_1.png,1,0,0,0,0,"[9, 19, 29, 39, 49, 59, 68, 69, 70, 71]",,,,,0,1,1,1,114.23281889800091,,,,,,,,,,,,,,,,,,,,,,,,,,,,,,,,,,,,,,,,,,,,,,114.2112050630003,114.211293149001,114.21130227900176,114.23281889800091,114.23281889800091,115.22185125800024,115.22185125800024,118.22780210900055,118.22780210900055,118.22780210900055,118.22780210900055,118.20577459800006,1,1,1.3867365609985427,None,None,118.2064606590011,118.20650714500152,None,118.20661765000114,118.20667252100066,None,118.2067937260017,118.20683086000099,None,,,,,,,,,,,,,,,2,001,0,,2024-05-30_13h54.26.491,replicate_nsd,2023.2.3,59.979858883651204,2024-05-30 13h54.39.749683 -0400,
images/image_205_seed_1.png,2,0,0,0,0,"[9, 19, 29, 39, 49, 59, 68, 69, 70, 71]",,,,,0,2,2,2,118.22780210900055,,,,,,,,,,,,,,,,,,,,,,,,,,,,,,,,,,,,,,,,,,,,,,118.20721335300004,118.2073370220005,118.20734958499997,118.22780210900055,118.22780210900055,119.22216201800074,119.22216201800074,122.22816822300047,122.22816822300047,122.22816822300047,122.22816822300047,122.20589603500048,1,1,1.08847982700172,None,None,122.20650434400159,122.20654890000151,None,122.20665804200144,122.20671170100104,None,122.20682388600108,122.20686150500114,None,,,,,,,,,,,,,,,2,001,0,,2024-05-30_13h54.26.491,replicate_nsd,2023.2.3,59.979858883651204,2024-05-30 13h54.39.749683 -0400,
images/image_185_seed_1.png,3,0,0,0,0,"[9, 19, 29, 39, 49, 59, 68, 69, 70, 71]",,,,,0,3,3,3,122.22816822300047,,,,,,,,,,,,,,,,,,,,,,,,,,,,,,,,,,,,,,,,,,,,,,122.20724061700093,122.20736593200127,122.20737872200152,122.22816822300047,122.22816822300047,123.22233565200077,123.22233565200077,126.2238815590008,126.2238815590008,126.2238815590008,126.2238815590008,126.20604738600014,1,1,0.8180983260008361,None,None,126.20665049300078,126.20669462500155,None,126.20680221700059,126.20685626100021,None,126.20696562700141,126.20700318700074,None,,,,,,,,,,,,,,,2,001,0,,2024-05-30_13h54.26.491,replicate_nsd,2023.2.3,59.979858883651204,2024-05-30 13h54.39.749683 -0400,
images/8_78.png,4,0,0,0,0,"[9, 19, 29, 39, 49, 59, 68, 69, 70, 71]",,,,,0,4,4,4,126.2238815590008,,,,,,,,,,,,,,,,,,,,,,,,,,,,,,,,,,,,,,,,,,,,,,126.20738439900015,126.20750463600052,126.20751747300164,126.2238815590008,126.2238815590008,127.22181270000146,127.22181270000146,130.22889951100115,130.22889951100115,130.22889951100115,130.22889951100115,130.2060094440003,1,1,0.8897611129996221,None,None,130.2066104660007,130.20665316600025,None,130.2067635780004,130.20681914700072,None,130.20693043000028,130.20696707500065,None,,,,,,,,,,,,,,,2,001,0,,2024-05-30_13h54.26.491,replicate_nsd,2023.2.3,59.979858883651204,2024-05-30 13h54.39.749683 -0400,
images/image_666_seed_1.png,5,0,0,0,0,"[9, 19, 29, 39, 49, 59, 68, 69, 70, 71]",,,,,0,5,5,5,130.22889951100115,,,,,,,,,,,,,,,,,,,,,,,,,,,,,,,,,,,,,,,,,,,,,,130.20734688300035,130.20746761400005,130.20748010600073,130.22889951100115,130.22889951100115,131.22225324700048,131.22225324700048,134.22890014400036,134.22890014400036,134.22890014400036,134.22890014400036,134.2063167790002,1,1,1.424326327000017,None,None,134.2069176240002,134.20696076900094,None,134.20706967200022,134.2071243290011,None,134.20723522400112,134.20727172900115,None,,,,,,,,,,,,,,,2,001,0,,2024-05-30_13h54.26.491,replicate_nsd,2023.2.3,59.979858883651204,2024-05-30 13h54.39.749683 -0400,
images/image_399_seed_1.png,6,0,0,0,0,"[9, 19, 29, 39, 49, 59, 68, 69, 70, 71]",,,,,0,6,6,6,134.22890014400036,,,,,,,,,,,,,,,,,,,,,,,,,,,,,,,,,,,,,,,,,,,,,,134.2076567820004,134.20777835100125,134.20779125100125,134.22890014400036,134.22890014400036,135.22261135100052,135.22261135100052,138.22908407600153,138.22908407600153,138.22908407600153,138.22908407600153,138.20645209600116,1,1,1.3159590909999679,None,None,138.20706373600115,138.20710706499995,None,138.2072183880009,138.20727200700094,None,138.2073834820003,138.20741982600157,None,,,,,,,,,,,,,,,2,001,0,,2024-05-30_13h54.26.491,replicate_nsd,2023.2.3,59.979858883651204,2024-05-30 13h54.39.749683 -0400,
images/image_594_seed_1.png,7,0,0,0,0,"[9, 19, 29, 39, 49, 59, 68, 69, 70, 71]",,,,,0,7,7,7,138.22908407600153,,,,,,,,,,,,,,,,,,,,,,,,,,,,,,,,,,,,,,,,,,,,,,138.20780564300003,138.20792891600104,138.2079419340007,138.22908407600153,138.22908407600153,139.22266406600102,139.22266406600102,142.22852915500152,142.22852915500152,142.22852915500152,142.22852915500152,142.20629628400093,1,1,1.411810019000768,None,None,142.2069026070003,142.2069462690015,None,142.20705671900032,142.20711149900126,None,142.2072217970017,142.20725798900094,None,,,,,,,,,,,,,,,2,001,0,,2024-05-30_13h54.26.491,replicate_nsd,2023.2.3,59.979858883651204,2024-05-30 13h54.39.749683 -0400,
images/image_158_seed_1.png,8,0,0,0,0,"[9, 19, 29, 39, 49, 59, 68, 69, 70, 71]",,,,,0,8,8,8,142.22852915500152,,,,,,,,,,,,,,,,,,,,,,,,,,,,,,,,,,,,,,,,,,,,,,142.2076399510006,142.2077614860009,142.20777416700003,142.22852915500152,142.22852915500152,143.22285004300102,143.22285004300102,146.22284129900072,146.22284129900072,146.22284129900072,146.22284129900072,146.20643238200137,1,1,1.6215608229995269,None,None,146.20703948200025,146.2070839880016,None,146.20719435700084,146.20724842300115,None,146.2073592430006,146.20739656000114,None,,,,,,,,,,,,,,,2,001,0,,2024-05-30_13h54.26.491,replicate_nsd,2023.2.3,59.979858883651204,2024-05-30 13h54.39.749683 -0400,
blank.jpg,9,1,0,0,0,"[9, 19, 29, 39, 49, 59, 68, 69, 70, 71]",,,,,0,9,9,9,146.22284129900072,,,,,,,,,,,,,,,,,,,,,,,,,,,,,,,,,,,,,,,,,,,,,,146.20777650700074,146.2078999710011,146.20791257400015,,,,,,,,,146.21164073100044,None,0,,,None,146.21203399200022,150.20656934600083,None,150.2067858340015,150.2068452070016,None,150.2069768700003,150.20701491399996,None,146.22284129900072,146.22284129900072,150.22879753300003,150.22879753300003,,,,,,,,,,,2,001,0,,2024-05-30_13h54.26.491,replicate_nsd,2023.2.3,59.979858883651204,2024-05-30 13h54.39.749683 -0400,
images/image_386_seed_1.png,10,0,0,0,0,"[9, 19, 29, 39, 49, 59, 68, 69, 70, 71]",,,,,0,10,10,10,150.22879753300003,,,,,,,,,,,,,,,,,,,,,,,,,,,,,,,,,,,,,,,,,,,,,,150.2074125600011,150.20753238500038,150.2075450430002,150.22879753300003,150.22879753300003,151.22288046700123,151.22288046700123,154.22878442900037,154.22878442900037,154.22878442900037,154.22878442900037,154.20683121100046,1,1,0.8045498659994337,None,None,154.20743791900168,154.20748335700046,None,154.2075928890008,154.20764793200033,None,154.20775910700104,154.2077960300012,None,,,,,,,,,,,,,,,2,001,0,,2024-05-30_13h54.26.491,replicate_nsd,2023.2.3,59.979858883651204,2024-05-30 13h54.39.749683 -0400,
images/image_363_seed_1.png,11,0,0,0,0,"[9, 19, 29, 39, 49, 59, 68, 69, 70, 71]",,,,,0,11,11,11,154.22878442900037,,,,,,,,,,,,,,,,,,,,,,,,,,,,,,,,,,,,,,,,,,,,,,154.2081764780014,154.208296918001,154.20830986300098,154.22878442900037,154.22878442900037,155.22305207200043,155.22305207200043,158.22855828900174,158.22855828900174,158.22855828900174,158.22855828900174,158.20682274700084,1,1,1.2173849530008738,None,None,158.20742936900024,158.2074739230011,None,158.20758425200074,158.20763824800088,None,158.2077493150009,158.207785685001,None,,,,,,,,,,,,,,,2,001,0,,2024-05-30_13h54.26.491,replicate_nsd,2023.2.3,59.979858883651204,2024-05-30 13h54.39.749683 -0400,
images/image_473_seed_1.png,12,0,0,0,0,"[9, 19, 29, 39, 49, 59, 68, 69, 70, 71]",,,,,0,12,12,12,158.22855828900174,,,,,,,,,,,,,,,,,,,,,,,,,,,,,,,,,,,,,,,,,,,,,,158.20816531700075,158.20828734800125,158.20830027600095,158.22855828900174,158.22855828900174,159.22322312600045,159.22322312600045,162.22888673000125,162.22888673000125,162.22888673000125,162.22888673000125,162.20702969600097,1,1,1.7432699209985003,None,None,162.20763765100128,162.20768127700103,None,162.2077920440006,162.20784728200124,None,162.20795856600125,162.20799460900162,None,,,,,,,,,,,,,,,2,001,0,,2024-05-30_13h54.26.491,replicate_nsd,2023.2.3,59.979858883651204,2024-05-30 13h54.39.749683 -0400,
images/image_348_seed_1.png,13,0,0,0,0,"[9, 19, 29, 39, 49, 59, 68, 69, 70, 71]",,,,,0,13,13,13,162.22888673000125,,,,,,,,,,,,,,,,,,,,,,,,,,,,,,,,,,,,,,,,,,,,,,162.20837646900145,162.20849900600115,162.20851179300007,162.22888673000125,162.22888673000125,163.2232991610017,163.2232991610017,166.22876281800018,166.22876281800018,166.22876281800018,166.22876281800018,166.20686859700072,1,1,1.8202928450009495,None,None,166.2074733210011,166.207516587001,None,166.20762666600058,166.20768138800122,None,166.2077927140017,166.20782943200174,None,,,,,,,,,,,,,,,2,001,0,,2024-05-30_13h54.26.491,replicate_nsd,2023.2.3,59.979858883651204,2024-05-30 13h54.39.749683 -0400,
images/image_377_seed_1.png,14,0,0,0,0,"[9, 19, 29, 39, 49, 59, 68, 69, 70, 71]",,,,,0,14,14,14,166.22876281800018,,,,,,,,,,,,,,,,,,,,,,,,,,,,,,,,,,,,,,,,,,,,,,166.20820741600073,166.2083291120016,166.20834189000016,166.22876281800018,166.22876281800018,167.223310632,167.223310632,170.2287423200014,170.2287423200014,170.2287423200014,170.2287423200014,170.20698663900112,1,1,1.4480731900002866,None,None,170.20758991799994,170.207633764001,None,170.20774246900146,170.20779670400043,None,170.207907987,170.2079449870016,None,,,,,,,,,,,,,,,2,001,0,,2024-05-30_13h54.26.491,replicate_nsd,2023.2.3,59.979858883651204,2024-05-30 13h54.39.749683 -0400,
images/image_523_seed_1.png,15,0,0,0,0,"[9, 19, 29, 39, 49, 59, 68, 69, 70, 71]",,,,,0,15,15,15,170.2287423200014,,,,,,,,,,,,,,,,,,,,,,,,,,,,,,,,,,,,,,,,,,,,,,170.2083248380004,170.20844707400101,170.20845982500032,170.2287423200014,170.2287423200014,171.2233399430006,171.2233399430006,174.22963806700136,174.22963806700136,174.22963806700136,174.22963806700136,174.207200017001,1,1,1.0072411870005453,None,None,174.2078050730015,174.20784934400035,None,174.20795957000155,174.2080142570012,None,174.2081239120016,174.20816001500134,None,,,,,,,,,,,,,,,2,001,0,,2024-05-30_13h54.26.491,replicate_nsd,2023.2.3,59.979858883651204,2024-05-30 13h54.39.749683 -0400,
images/image_505_seed_1.png,16,0,0,0,0,"[9, 19, 29, 39, 49, 59, 68, 69, 70, 71]",,,,,0,16,16,16,174.22963806700136,,,,,,,,,,,,,,,,,,,,,,,,,,,,,,,,,,,,,,,,,,,,,,174.2085413520017,174.20866208799998,174.20867487900068,174.22963806700136,174.22963806700136,175.22353089800163,175.22353089800163,178.22927749300106,178.22927749300106,178.22927749300106,178.22927749300106,178.20736915700036,1,1,1.0149973869993119,None,None,178.20796950000113,178.20801276300153,None,178.2081214630016,178.20817470200018,None,178.20828417400116,178.20832068300115,None,,,,,,,,,,,,,,,2,001,0,,2024-05-30_13h54.26.491,replicate_nsd,2023.2.3,59.979858883651204,2024-05-30 13h54.39.749683 -0400,
images/image_349_seed_1.png,17,0,0,0,0,"[9, 19, 29, 39, 49, 59, 68, 69, 70, 71]",,,,,0,17,17,17,178.22927749300106,,,,,,,,,,,,,,,,,,,,,,,,,,,,,,,,,,,,,,,,,,,,,,178.20869768900047,178.20881787500002,178.2088303440014,178.22927749300106,178.22927749300106,179.22370127600152,179.22370127600152,182.23022492200107,182.23022492200107,182.23022492200107,182.23022492200107,182.20747283900164,1,1,1.0099166730014986,None,None,182.2080750160003,182.20811832500112,None,182.20822669500012,182.20828110800176,None,182.20839135500137,182.20842841900048,None,,,,,,,,,,,,,,,2,001,0,,2024-05-30_13h54.26.491,replicate_nsd,2023.2.3,59.979858883651204,2024-05-30 13h54.39.749683 -0400,
images/image_215_seed_1.png,18,0,0,0,0,"[9, 19, 29, 39, 49, 59, 68, 69, 70, 71]",,,,,0,18,18,18,182.23022492200107,,,,,,,,,,,,,,,,,,,,,,,,,,,,,,,,,,,,,,,,,,,,,,182.2088063200008,182.20892834400001,182.2089412360001,182.23022492200107,182.23022492200107,183.2237830030008,183.2237830030008,186.2238166470015,186.2238166470015,186.2238166470015,186.2238166470015,186.2074836770007,1,1,0.8708088739986124,None,None,186.20808907500032,186.20813282000017,None,186.20824243800052,186.20829605400104,None,186.20840720800152,186.20844380200106,None,,,,,,,,,,,,,,,2,001,0,,2024-05-30_13h54.26.491,replicate_nsd,2023.2.3,59.979858883651204,2024-05-30 13h54.39.749683 -0400,
blank.jpg,19,1,0,0,0,"[9, 19, 29, 39, 49, 59, 68, 69, 70, 71]",,,,,0,19,19,19,186.2238166470015,,,,,,,,,,,,,,,,,,,,,,,,,,,,,,,,,,,,,,,,,,,,,,186.20882318700023,186.20894356600002,186.20895638500042,,,,,,,,,186.21240926300015,None,0,,,None,186.2127283080008,190.2075322540004,None,190.20774789900133,190.2078070690004,None,190.2079370370011,190.20797517100073,None,186.2238166470015,186.2238166470015,190.23045793300116,190.23045793300116,,,,,,,,,,,2,001,0,,2024-05-30_13h54.26.491,replicate_nsd,2023.2.3,59.979858883651204,2024-05-30 13h54.39.749683 -0400,
images/image_725_seed_1.png,20,0,0,0,0,"[9, 19, 29, 39, 49, 59, 68, 69, 70, 71]",,,,,0,20,20,20,190.23045793300116,,,,,,,,,,,,,,,,,,,,,,,,,,,,,,,,,,,,,,,,,,,,,,190.20838282600016,190.20850488200085,190.20851765200132,190.23045793300116,190.23045793300116,191.223626944,191.223626944,194.23063154800002,194.23063154800002,194.23063154800002,194.23063154800002,194.20785600199997,1,1,2.1599689129998296,None,None,194.20845915800055,194.20850418200098,None,194.2086195690008,194.20867293300034,None,194.20878432800055,194.20882047100167,None,,,,,,,,,,,,,,,2,001,0,,2024-05-30_13h54.26.491,replicate_nsd,2023.2.3,59.979858883651204,2024-05-30 13h54.39.749683 -0400,
images/image_459_seed_1.png,21,0,0,0,0,"[9, 19, 29, 39, 49, 59, 68, 69, 70, 71]",,,,,0,21,21,21,194.23063154800002,,,,,,,,,,,,,,,,,,,,,,,,,,,,,,,,,,,,,,,,,,,,,,194.20919915500053,194.20932178100156,194.20933453100042,194.23063154800002,194.23063154800002,195.22410274899994,195.22410274899994,198.23006759300006,198.23006759300006,198.23006759300006,198.23006759300006,198.20790517600108,1,1,2.751317777998338,None,None,198.20851324700016,198.2085563870005,None,198.20866485400074,198.20872042300107,None,198.20883219999996,198.20886958200026,None,,,,,,,,,,,,,,,2,001,0,,2024-05-30_13h54.26.491,replicate_nsd,2023.2.3,59.979858883651204,2024-05-30 13h54.39.749683 -0400,
images/paired_image_41_2.png,22,0,0,0,0,"[9, 19, 29, 39, 49, 59, 68, 69, 70, 71]",,,,,0,22,22,22,198.23006759300006,,,,,,,,,,,,,,,,,,,,,,,,,,,,,,,,,,,,,,,,,,,,,,198.20925164600158,198.20937340599994,198.20938582600138,198.23006759300006,198.23006759300006,199.22424079800112,199.22424079800112,202.2304644290016,202.2304644290016,202.2304644290016,202.2304644290016,202.2079189290016,1,1,2.4444035470005474,None,None,202.20853767600056,202.20858174200112,None,202.20869267900162,202.20874662000097,None,202.20885875600106,202.20889481700033,None,,,,,,,,,,,,,,,2,001,0,,2024-05-30_13h54.26.491,replicate_nsd,2023.2.3,59.979858883651204,2024-05-30 13h54.39.749683 -0400,
images/image_76_seed_1.png,23,0,0,0,0,"[9, 19, 29, 39, 49, 59, 68, 69, 70, 71]",,,,,0,23,23,23,202.2304644290016,,,,,,,,,,,,,,,,,,,,,,,,,,,,,,,,,,,,,,,,,,,,,,202.20928016300059,202.2094029910004,202.20941575600045,202.2304644290016,202.2304644290016,203.22432075100005,203.22432075100005,206.23073142900103,206.23073142900103,206.23073142900103,206.23073142900103,206.20819186600056,1,1,1.7732511199992587,None,None,206.20898494100038,206.20902855900022,None,206.20913827600089,206.20919125900036,None,206.20930142200086,206.20933732400044,None,,,,,,,,,,,,,,,2,001,0,,2024-05-30_13h54.26.491,replicate_nsd,2023.2.3,59.979858883651204,2024-05-30 13h54.39.749683 -0400,
images/image_482_seed_1.png,24,0,0,0,0,"[9, 19, 29, 39, 49, 59, 68, 69, 70, 71]",,,,,0,24,24,24,206.23073142900103,,,,,,,,,,,,,,,,,,,,,,,,,,,,,,,,,,,,,,,,,,,,,,206.20972095100115,206.20984110600148,206.20985377500074,206.23073142900103,206.23073142900103,207.2241856620003,207.2241856620003,210.229851565,210.229851565,210.229851565,210.229851565,210.20812111600026,1,1,2.160246213999926,None,None,210.2087240260007,210.20876783400126,None,210.2088756360008,210.20892931800154,None,210.20903875500153,210.2090750260013,None,,,,,,,,,,,,,,,2,001,0,,2024-05-30_13h54.26.491,replicate_nsd,2023.2.3,59.979858883651204,2024-05-30 13h54.39.749683 -0400,
images/image_267_seed_1.png,25,0,0,0,0,"[9, 19, 29, 39, 49, 59, 68, 69, 70, 71]",,,,,0,25,25,25,210.229851565,,,,,,,,,,,,,,,,,,,,,,,,,,,,,,,,,,,,,,,,,,,,,,210.20945374700023,210.2095749020009,210.2095877820011,210.229851565,210.229851565,211.22445945500112,211.22445945500112,214.23042205500133,214.23042205500133,214.23042205500133,214.23042205500133,214.20832440900085,1,1,2.0071199259982677,None,None,214.2089262190002,214.20896966300097,None,214.20907941900077,214.20913300600114,None,214.20924392300003,214.20928172000094,None,,,,,,,,,,,,,,,2,001,0,,2024-05-30_13h54.26.491,replicate_nsd,2023.2.3,59.979858883651204,2024-05-30 13h54.39.749683 -0400,
images/image_525_seed_1.png,26,0,0,0,0,"[9, 19, 29, 39, 49, 59, 68, 69, 70, 71]",,,,,0,26,26,26,214.23042205500133,,,,,,,,,,,,,,,,,,,,,,,,,,,,,,,,,,,,,,,,,,,,,,214.20966472800137,214.20978683900103,214.20979966900086,214.23042205500133,214.23042205500133,215.2245209190005,215.2245209190005,218.23021982700084,218.23021982700084,218.23021982700084,218.23021982700084,218.2083278200007,None,0,,,None,218.20876116200088,218.2088042130017,None,218.2089185470013,218.20897365100063,None,218.20908789700115,218.2091242760016,None,,,,,,,,,,,,,,,2,001,0,,2024-05-30_13h54.26.491,replicate_nsd,2023.2.3,59.979858883651204,2024-05-30 13h54.39.749683 -0400,
images/image_110_seed_1.png,27,0,0,0,0,"[9, 19, 29, 39, 49, 59, 68, 69, 70, 71]",,,,,0,27,27,27,218.23021982700084,,,,,,,,,,,,,,,,,,,,,,,,,,,,,,,,,,,,,,,,,,,,,,218.2095051690012,218.2096257530011,218.20963845500046,218.23021982700084,218.23021982700084,219.224727144001,219.224727144001,222.2308265440006,222.2308265440006,222.2308265440006,222.2308265440006,222.2087788880017,1,1,1.8457574719996046,None,None,222.20956713300075,222.20961058300054,None,222.20971903200007,222.2097728280005,None,222.2098829380011,222.2099199330005,None,,,,,,,,,,,,,,,2,001,0,,2024-05-30_13h54.26.491,replicate_nsd,2023.2.3,59.979858883651204,2024-05-30 13h54.39.749683 -0400,
images/image_295_seed_1.png,28,0,0,0,0,"[9, 19, 29, 39, 49, 59, 68, 69, 70, 71]",,,,,0,28,28,28,222.2308265440006,,,,,,,,,,,,,,,,,,,,,,,,,,,,,,,,,,,,,,,,,,,,,,222.21030044800136,222.2104217110009,222.21043402500072,222.2308265440006,222.2308265440006,223.22488061400145,223.22488061400145,226.22449465700083,226.22449465700083,226.22449465700083,226.22449465700083,226.20842454100057,1,1,1.6986692379996384,None,None,226.2090318720002,226.2090756510006,None,226.2091859580014,226.20923975200094,None,226.20934984200176,226.20938575900072,None,,,,,,,,,,,,,,,2,001,0,,2024-05-30_13h54.26.491,replicate_nsd,2023.2.3,59.979858883651204,2024-05-30 13h54.39.749683 -0400,
blank.jpg,29,1,0,0,0,"[9, 19, 29, 39, 49, 59, 68, 69, 70, 71]",,,,,0,29,29,29,226.22449465700083,,,,,,,,,,,,,,,,,,,,,,,,,,,,,,,,,,,,,,,,,,,,,,226.20976280800096,226.2098857100009,226.20989856699998,,,,,,,,,226.2138924310002,None,0,,,None,226.21428918700076,230.20742507500108,None,230.20752637700025,230.20755434000057,None,230.2076141890011,230.20763167400037,None,226.22449465700083,226.22449465700083,230.22400471900073,230.22400471900073,,,,,,,,,,,2,001,0,,2024-05-30_13h54.26.491,replicate_nsd,2023.2.3,59.979858883651204,2024-05-30 13h54.39.749683 -0400,
images/image_565_seed_1.png,30,0,0,0,0,"[9, 19, 29, 39, 49, 59, 68, 69, 70, 71]",,,,,0,30,30,30,230.22400471900073,,,,,,,,,,,,,,,,,,,,,,,,,,,,,,,,,,,,,,,,,,,,,,230.20781717800128,230.20787300700067,230.20787880600074,230.22400471900073,230.22400471900073,231.22452085600162,231.22452085600162,234.22914708700046,234.22914708700046,234.22914708700046,234.22914708700046,234.20827124800053,1,1,1.6529532050008129,None,None,234.20886069800144,234.20890478100046,None,234.20901636200142,234.20906999700128,None,234.20918277500095,234.20921898000051,None,,,,,,,,,,,,,,,2,001,0,,2024-05-30_13h54.26.491,replicate_nsd,2023.2.3,59.979858883651204,2024-05-30 13h54.39.749683 -0400,
images/image_128_seed_1.png,31,0,0,0,0,"[9, 19, 29, 39, 49, 59, 68, 69, 70, 71]",,,,,0,31,31,31,234.22914708700046,,,,,,,,,,,,,,,,,,,,,,,,,,,,,,,,,,,,,,,,,,,,,,234.20960163100062,234.20972521600015,234.20973813900127,234.22914708700046,234.22914708700046,235.22420356600014,235.22420356600014,238.22934199300107,238.22934199300107,238.22934199300107,238.22934199300107,238.20835398100098,1,1,2.150288697999713,None,None,238.20893648100173,238.20897976800006,None,238.20908856700044,238.2091422370013,None,238.20925210500172,238.20928889100105,None,,,,,,,,,,,,,,,2,001,0,,2024-05-30_13h54.26.491,replicate_nsd,2023.2.3,59.979858883651204,2024-05-30 13h54.39.749683 -0400,
images/image_431_seed_1.png,32,0,0,0,0,"[9, 19, 29, 39, 49, 59, 68, 69, 70, 71]",,,,,0,32,32,32,238.22934199300107,,,,,,,,,,,,,,,,,,,,,,,,,,,,,,,,,,,,,,,,,,,,,,238.20966571999998,238.20978922700124,238.20980210400012,238.22934199300107,238.22934199300107,239.2246775850017,239.2246775850017,242.22929836500043,242.22929836500043,242.22929836500043,242.22929836500043,242.208082946001,None,0,,,None,242.20848824500172,242.20853044400064,None,242.20864282900038,242.20869607500026,None,242.20880686000055,242.20884272200055,None,,,,,,,,,,,,,,,2,001,0,,2024-05-30_13h54.26.491,replicate_nsd,2023.2.3,59.979858883651204,2024-05-30 13h54.39.749683 -0400,
images/image_432_seed_1.png,33,0,0,0,0,"[9, 19, 29, 39, 49, 59, 68, 69, 70, 71]",,,,,0,33,33,33,242.22929836500043,,,,,,,,,,,,,,,,,,,,,,,,,,,,,,,,,,,,,,,,,,,,,,242.209218598,242.20933970100123,242.20935258100144,242.22929836500043,242.22929836500043,243.22462161500152,243.22462161500152,246.2301202790004,246.2301202790004,246.2301202790004,246.2301202790004,246.20857589200023,1,1,1.9117930900010833,None,['1'],246.21095475100083,246.21099382300054,None,246.2110966550008,246.21114161700098,None,246.2112374520002,246.21126666200144,None,,,,,[0.017114046000642702],[None],,,,,,,,,2,001,0,,2024-05-30_13h54.26.491,replicate_nsd,2023.2.3,59.979858883651204,2024-05-30 13h54.39.749683 -0400,
images/image_609_seed_1.png,34,0,0,0,0,"[9, 19, 29, 39, 49, 59, 68, 69, 70, 71]",,,,,0,34,34,34,246.2301202790004,,,,,,,,,,,,,,,,,,,,,,,,,,,,,,,,,,,,,,,,,,,,,,246.21157142200173,246.21167066700036,246.21168074800153,246.2301202790004,246.2301202790004,247.22477579000042,247.22477579000042,250.22570966400053,250.22570966400053,250.22570966400053,250.22570966400053,250.2081487560008,1,1,2.386665781999909,None,None,250.20844765400034,250.20846903600068,None,250.20851905200107,250.20854620800128,None,250.2085967640014,250.20861373000116,None,,,,,,,,,,,,,,,2,001,0,,2024-05-30_13h54.26.491,replicate_nsd,2023.2.3,59.979858883651204,2024-05-30 13h54.39.749683 -0400,
images/image_112_seed_1.png,35,0,0,0,0,"[9, 19, 29, 39, 49, 59, 68, 69, 70, 71]",,,,,0,35,35,35,250.22570966400053,,,,,,,,,,,,,,,,,,,,,,,,,,,,,,,,,,,,,,,,,,,,,,250.20879391400013,250.20885267500125,250.2088585440015,250.22570966400053,250.22570966400053,251.22495479100144,251.22495479100144,254.22965064900018,254.22965064900018,254.22965064900018,254.22965064900018,254.20869302400024,1,1,1.7974510220010416,None,None,254.20926124800098,254.20930425400002,None,254.2094106350014,254.20946361300048,None,254.20957228299994,254.20960859200022,None,,,,,,,,,,,,,,,2,001,0,,2024-05-30_13h54.26.491,replicate_nsd,2023.2.3,59.979858883651204,2024-05-30 13h54.39.749683 -0400,
images/image_52_seed_1.png,36,0,0,0,0,"[9, 19, 29, 39, 49, 59, 68, 69, 70, 71]",,,,,0,36,36,36,254.22965064900018,,,,,,,,,,,,,,,,,,,,,,,,,,,,,,,,,,,,,,,,,,,,,,254.20998204800162,254.21010081000168,254.21011319000172,254.22965064900018,254.22965064900018,255.22510873700048,255.22510873700048,258.2308014680002,258.2308014680002,258.2308014680002,258.2308014680002,258.20933032500034,1,1,2.1853367109997635,None,None,258.2099414580007,258.209985124,None,258.2100946650007,258.21014779000143,None,258.21026007900036,258.2102960170014,None,,,,,,,,,,,,,,,2,001,0,,2024-05-30_13h54.26.491,replicate_nsd,2023.2.3,59.979858883651204,2024-05-30 13h54.39.749683 -0400,
images/image_231_seed_1.png,37,0,0,0,0,"[9, 19, 29, 39, 49, 59, 68, 69, 70, 71]",,,,,0,37,37,37,258.2308014680002,,,,,,,,,,,,,,,,,,,,,,,,,,,,,,,,,,,,,,,,,,,,,,258.2106840860015,258.2108060870014,258.2108192020005,258.2308014680002,258.2308014680002,259.2257722430004,259.2257722430004,262.2378702440001,262.2378702440001,262.2378702440001,262.2378702440001,262.20950753500074,1,1,1.3186977980003576,None,None,262.21011519700005,262.2101591290011,None,262.21026934100155,262.2103243220008,None,262.210435555,262.2104716040012,None,,,,,,,,,,,,,,,2,001,0,,2024-05-30_13h54.26.491,replicate_nsd,2023.2.3,59.979858883651204,2024-05-30 13h54.39.749683 -0400,
images/image_62_seed_1.png,38,0,0,0,0,"[9, 19, 29, 39, 49, 59, 68, 69, 70, 71]",,,,,0,38,38,38,262.2378702440001,,,,,,,,,,,,,,,,,,,,,,,,,,,,,,,,,,,,,,,,,,,,,,262.21085637300166,262.2109785470002,262.2109913130007,262.2378702440001,262.2378702440001,263.22575609200067,263.22575609200067,266.2260619790013,266.2260619790013,266.2260619790013,266.2260619790013,266.20961244000137,1,1,1.4748319020000054,None,None,266.21021400300015,266.21025802700024,None,266.2103668390009,266.2104214050014,None,266.2105305360001,266.21056746900103,None,,,,,,,,,,,,,,,2,001,0,,2024-05-30_13h54.26.491,replicate_nsd,2023.2.3,59.979858883651204,2024-05-30 13h54.39.749683 -0400,
blank.jpg,39,1,0,0,0,"[9, 19, 29, 39, 49, 59, 68, 69, 70, 71]",,,,,0,39,39,39,266.2260619790013,,,,,,,,,,,,,,,,,,,,,,,,,,,,,,,,,,,,,,,,,,,,,,266.21094533700125,266.21106832400073,266.21108084700063,,,,,,,,,266.21463479200065,None,0,,,None,266.21495157700156,270.209564535,None,270.2097808660001,270.2098397490008,None,270.20997019900096,270.21000875900063,None,266.2260619790013,266.2260619790013,270.2326364510009,270.2326364510009,,,,,,,,,,,2,001,0,,2024-05-30_13h54.26.491,replicate_nsd,2023.2.3,59.979858883651204,2024-05-30 13h54.39.749683 -0400,
images/image_498_seed_1.png,40,0,0,0,0,"[9, 19, 29, 39, 49, 59, 68, 69, 70, 71]",,,,,0,40,40,40,270.2326364510009,,,,,,,,,,,,,,,,,,,,,,,,,,,,,,,,,,,,,,,,,,,,,,270.21040879500106,270.21053009700154,270.21054301799995,270.2326364510009,270.2326364510009,271.2260011770013,271.2260011770013,274.2317058260014,274.2317058260014,274.2317058260014,274.2317058260014,274.20994952800174,1,1,1.6305476389989053,None,None,274.21055207000063,274.21059680800136,None,274.2107086830001,274.2107635680004,None,274.2108748110004,274.210911225,None,,,,,,,,,,,,,,,2,001,0,,2024-05-30_13h54.26.491,replicate_nsd,2023.2.3,59.979858883651204,2024-05-30 13h54.39.749683 -0400,
images/paired_image_25_2.png,41,0,0,0,0,"[9, 19, 29, 39, 49, 59, 68, 69, 70, 71]",,,,,0,41,41,41,274.2317058260014,,,,,,,,,,,,,,,,,,,,,,,,,,,,,,,,,,,,,,,,,,,,,,274.211294783001,274.21141785000145,274.2114305740015,274.2317058260014,274.2317058260014,275.22633684000175,275.22633684000175,278.23172574100136,278.23172574100136,278.23172574100136,278.23172574100136,278.2099272560008,1,1,1.8362206579986378,None,None,278.21052849100124,278.2105721400003,None,278.21068102200115,278.21073445,None,278.2108454720001,278.2108818050001,None,,,,,,,,,,,,,,,2,001,0,,2024-05-30_13h54.26.491,replicate_nsd,2023.2.3,59.979858883651204,2024-05-30 13h54.39.749683 -0400,
images/image_231_seed_1.png,42,0,1,0,0,"[9, 19, 29, 39, 49, 59, 68, 69, 70, 71]",,,,,0,42,42,42,278.23172574100136,,,,,,,,,,,,,,,,,,,,,,,,,,,,,,,,,,,,,,,,,,,,,,278.2112583930011,278.2113790990006,278.21139152900105,278.23172574100136,278.23172574100136,279.226292704001,279.226292704001,282.23254798000016,282.23254798000016,282.23254798000016,282.23254798000016,282.2099326300013,1,0,2.022275774999798,None,None,282.210533341,282.2105816050007,None,282.2106914140004,282.2107468210015,None,282.21085910500005,282.2108958380013,None,,,,,,,,,,,,,,,2,001,0,,2024-05-30_13h54.26.491,replicate_nsd,2023.2.3,59.979858883651204,2024-05-30 13h54.39.749683 -0400,
images/paired_image_483_2.png,43,0,0,0,0,"[9, 19, 29, 39, 49, 59, 68, 69, 70, 71]",,,,,0,43,43,43,282.23254798000016,,,,,,,,,,,,,,,,,,,,,,,,,,,,,,,,,,,,,,,,,,,,,,282.21127401300146,282.211394852,282.2114074460005,282.23254798000016,282.23254798000016,283.226411257001,283.226411257001,286.22666518500046,286.22666518500046,286.22666518500046,286.22666518500046,286.21010045100047,1,1,1.543209368999669,None,None,286.2107097350017,286.21075316500173,None,286.21086203600134,286.210917280001,None,286.2110272550017,286.2110640160008,None,,,,,,,,,,,,,,,2,001,0,,2024-05-30_13h54.26.491,replicate_nsd,2023.2.3,59.979858883651204,2024-05-30 13h54.39.749683 -0400,
images/13_44.png,44,0,0,0,0,"[9, 19, 29, 39, 49, 59, 68, 69, 70, 71]",,,,,0,44,44,44,286.22666518500046,,,,,,,,,,,,,,,,,,,,,,,,,,,,,,,,,,,,,,,,,,,,,,286.21144565800023,286.21156971800156,286.2115826470017,286.22666518500046,286.22666518500046,287.2264990820004,287.2264990820004,290.23236073000044,290.23236073000044,290.23236073000044,290.23236073000044,290.2104206690001,1,1,1.4570649420002155,None,None,290.21102225100003,290.2110658520014,None,290.2111759320014,290.2112305670016,None,290.21134146200166,290.2113778430012,None,,,,,,,,,,,,,,,2,001,0,,2024-05-30_13h54.26.491,replicate_nsd,2023.2.3,59.979858883651204,2024-05-30 13h54.39.749683 -0400,
images/image_416_seed_1.png,45,0,0,0,0,"[9, 19, 29, 39, 49, 59, 68, 69, 70, 71]",,,,,0,45,45,45,290.23236073000044,,,,,,,,,,,,,,,,,,,,,,,,,,,,,,,,,,,,,,,,,,,,,,290.21175455200137,290.21187603100043,290.21188856700064,290.23236073000044,290.23236073000044,291.2264751320017,291.2264751320017,294.23397562900027,294.23397562900027,294.23397562900027,294.23397562900027,294.2104964860009,1,1,1.6550896919998195,None,None,294.21127918800084,294.21132369500083,None,294.21143244000086,294.21148744100174,None,294.21159746800004,294.2116346410003,None,,,,,,,,,,,,,,,2,001,0,,2024-05-30_13h54.26.491,replicate_nsd,2023.2.3,59.979858883651204,2024-05-30 13h54.39.749683 -0400,
images/image_123_seed_1.png,46,0,0,0,0,"[9, 19, 29, 39, 49, 59, 68, 69, 70, 71]",,,,,0,46,46,46,294.23397562900027,,,,,,,,,,,,,,,,,,,,,,,,,,,,,,,,,,,,,,,,,,,,,,294.2120140880015,294.21213590700063,294.2121486070009,294.23397562900027,294.23397562900027,295.2267738270002,295.2267738270002,298.22724550400017,298.22724550400017,298.22724550400017,298.22724550400017,298.2103934630013,1,1,1.115769686000931,None,None,298.2110079470003,298.2110516700013,None,298.21116294200147,298.2112173500009,None,298.211328667001,298.2113659120005,None,,,,,,,,,,,,,,,2,001,0,,2024-05-30_13h54.26.491,replicate_nsd,2023.2.3,59.979858883651204,2024-05-30 13h54.39.749683 -0400,
images/1_78.png,47,0,0,0,0,"[9, 19, 29, 39, 49, 59, 68, 69, 70, 71]",,,,,0,47,47,47,298.22724550400017,,,,,,,,,,,,,,,,,,,,,,,,,,,,,,,,,,,,,,,,,,,,,,298.211749004,298.2118711530002,298.21188396600155,298.22724550400017,298.22724550400017,299.2267032620002,299.2267032620002,302.2319790620004,302.2319790620004,302.2319790620004,302.2319790620004,302.2105538300002,1,1,1.7749037029989267,None,None,302.21133735200056,302.21138069300105,None,302.21149070200045,302.21154563800155,None,302.21165964100146,302.2116961670017,None,,,,,,,,,,,,,,,2,001,0,,2024-05-30_13h54.26.491,replicate_nsd,2023.2.3,59.979858883651204,2024-05-30 13h54.39.749683 -0400,
images/image_448_seed_1.png,48,0,0,0,0,"[9, 19, 29, 39, 49, 59, 68, 69, 70, 71]",,,,,0,48,48,48,302.2319790620004,,,,,,,,,,,,,,,,,,,,,,,,,,,,,,,,,,,,,,,,,,,,,,302.212079152001,302.2122001610005,302.21221265700115,302.2319790620004,302.2319790620004,303.2268384980016,303.2268384980016,306.22669376700105,306.22669376700105,306.22669376700105,306.22669376700105,306.21058642800017,1,1,2.238617459001034,None,None,306.2111893220008,306.211233688,None,306.21134214300037,306.21139622900046,None,306.21150611600024,306.21154263600147,None,,,,,,,,,,,,,,,2,001,0,,2024-05-30_13h54.26.491,replicate_nsd,2023.2.3,59.979858883651204,2024-05-30 13h54.39.749683 -0400,
blank.jpg,49,1,0,0,0,"[9, 19, 29, 39, 49, 59, 68, 69, 70, 71]",,,,,0,49,49,49,306.22669376700105,,,,,,,,,,,,,,,,,,,,,,,,,,,,,,,,,,,,,,,,,,,,,,306.21191940600147,306.2120411120013,306.2120539740008,,,,,,,,,306.2158107580017,None,0,,,None,306.21620468700166,310.2105220580015,None,310.2107367110002,310.2107956280015,None,310.2109233980009,310.2109624720015,None,306.22669376700105,306.22669376700105,310.23316095500013,310.23316095500013,,,,,,,,,,,2,001,0,,2024-05-30_13h54.26.491,replicate_nsd,2023.2.3,59.979858883651204,2024-05-30 13h54.39.749683 -0400,
images/image_623_seed_1.png,50,0,0,0,0,"[9, 19, 29, 39, 49, 59, 68, 69, 70, 71]",,,,,0,50,50,50,310.23316095500013,,,,,,,,,,,,,,,,,,,,,,,,,,,,,,,,,,,,,,,,,,,,,,310.21136012700117,310.2114817560014,310.21149438000066,310.23316095500013,310.23316095500013,311.2268293980014,311.2268293980014,314.2332378680003,314.2332378680003,314.2332378680003,314.2332378680003,314.21087490900027,1,1,0.7577546689990413,None,None,314.21148126700064,314.2115257210007,None,314.211635484,314.21169032200123,None,314.211801468,314.21183823400133,None,,,,,,,,,,,,,,,2,001,0,,2024-05-30_13h54.26.491,replicate_nsd,2023.2.3,59.979858883651204,2024-05-30 13h54.39.749683 -0400,
images/image_688_seed_1.png,51,0,0,0,0,"[9, 19, 29, 39, 49, 59, 68, 69, 70, 71]",,,,,0,51,51,51,314.2332378680003,,,,,,,,,,,,,,,,,,,,,,,,,,,,,,,,,,,,,,,,,,,,,,314.2122157420017,314.2123375270003,314.2123498580004,314.2332378680003,314.2332378680003,315.22718647000147,315.22718647000147,318.23274870300156,318.23274870300156,318.23274870300156,318.23274870300156,318.2108301010012,1,1,1.8482497869990766,None,None,318.21142953800154,318.21147344900055,None,318.211582068001,318.21163677200093,None,318.21174657100164,318.21178351100025,None,,,,,,,,,,,,,,,2,001,0,,2024-05-30_13h54.26.491,replicate_nsd,2023.2.3,59.979858883651204,2024-05-30 13h54.39.749683 -0400,
images/paired_image_547_1.png,52,0,0,0,0,"[9, 19, 29, 39, 49, 59, 68, 69, 70, 71]",,,,,0,52,52,52,318.23274870300156,,,,,,,,,,,,,,,,,,,,,,,,,,,,,,,,,,,,,,,,,,,,,,318.2121587140009,318.2122808110016,318.2122936100004,318.23274870300156,318.23274870300156,319.2272088440004,319.2272088440004,322.2341717500003,322.2341717500003,322.2341717500003,322.2341717500003,322.2108559110002,1,1,1.795253786000103,None,None,322.2114607300009,322.21151375500085,None,322.2116284370004,322.211684064001,None,322.2117953830002,322.21183289000146,None,,,,,,,,,,,,,,,2,001,0,,2024-05-30_13h54.26.491,replicate_nsd,2023.2.3,59.979858883651204,2024-05-30 13h54.39.749683 -0400,
images/image_283_seed_1.png,53,0,0,0,0,"[9, 19, 29, 39, 49, 59, 68, 69, 70, 71]",,,,,0,53,53,53,322.2341717500003,,,,,,,,,,,,,,,,,,,,,,,,,,,,,,,,,,,,,,,,,,,,,,322.21221334200163,322.2123371650014,322.21234981600173,322.2341717500003,322.2341717500003,323.22730944200157,323.22730944200157,326.233022077,326.233022077,326.233022077,326.233022077,326.21082781400037,1,1,2.018132383000193,None,None,326.21142805900126,326.2114719850015,None,326.21158011900116,326.21163475700087,None,326.21174510700075,326.21178234000035,None,,,,,,,,,,,,,,,2,001,0,,2024-05-30_13h54.26.491,replicate_nsd,2023.2.3,59.979858883651204,2024-05-30 13h54.39.749683 -0400,
images/image_370_seed_1.png,54,0,0,0,0,"[9, 19, 29, 39, 49, 59, 68, 69, 70, 71]",,,,,0,54,54,54,326.233022077,,,,,,,,,,,,,,,,,,,,,,,,,,,,,,,,,,,,,,,,,,,,,,326.21216135100076,326.2122831600009,326.21229576800033,326.233022077,326.233022077,327.22719895200134,327.22719895200134,330.2338240020017,330.2338240020017,330.2338240020017,330.2338240020017,330.21127440200144,1,1,2.6182222199986427,None,None,330.2118797210005,330.2119229130003,None,330.2120324960015,330.21208785900126,None,330.21219901300174,330.2122363710005,None,,,,,,,,,,,,,,,2,001,0,,2024-05-30_13h54.26.491,replicate_nsd,2023.2.3,59.979858883651204,2024-05-30 13h54.39.749683 -0400,
images/image_726_seed_1.png,55,0,0,0,0,"[9, 19, 29, 39, 49, 59, 68, 69, 70, 71]",,,,,0,55,55,55,330.2338240020017,,,,,,,,,,,,,,,,,,,,,,,,,,,,,,,,,,,,,,,,,,,,,,330.212616488001,330.2127392520015,330.2127518790003,330.2338240020017,330.2338240020017,331.22749082500013,331.22749082500013,334.2332505930008,334.2332505930008,334.2332505930008,334.2332505930008,334.2113361370011,1,1,1.7551346059990465,None,None,334.21193444800156,334.2119779700006,None,334.21208640000077,334.2121409350002,None,334.2122517200005,334.2122887990008,None,,,,,,,,,,,,,,,2,001,0,,2024-05-30_13h54.26.491,replicate_nsd,2023.2.3,59.979858883651204,2024-05-30 13h54.39.749683 -0400,
images/image_569_seed_1.png,56,0,0,0,0,"[9, 19, 29, 39, 49, 59, 68, 69, 70, 71]",,,,,0,56,56,56,334.2332505930008,,,,,,,,,,,,,,,,,,,,,,,,,,,,,,,,,,,,,,,,,,,,,,334.21266681400084,334.21278824900037,334.21280056700016,334.2332505930008,334.2332505930008,335.22768394800005,335.22768394800005,338.2342458910007,338.2342458910007,338.2342458910007,338.2342458910007,338.21138987300037,1,1,1.7439063729998452,None,None,338.2119970780004,338.2120407750008,None,338.21215001900055,338.2122051740007,None,338.21231684600025,338.2123536480012,None,,,,,,,,,,,,,,,2,001,0,,2024-05-30_13h54.26.491,replicate_nsd,2023.2.3,59.979858883651204,2024-05-30 13h54.39.749683 -0400,
images/image_724_seed_1.png,57,0,0,0,0,"[9, 19, 29, 39, 49, 59, 68, 69, 70, 71]",,,,,0,57,57,57,338.2342458910007,,,,,,,,,,,,,,,,,,,,,,,,,,,,,,,,,,,,,,,,,,,,,,338.212732295,338.2128528660014,338.212865427,338.2342458910007,338.2342458910007,339.2276880950012,339.2276880950012,342.23285411100005,342.23285411100005,342.23285411100005,342.23285411100005,342.2113220610008,1,1,2.748865712001134,None,None,342.2119408260005,342.2119848070015,None,342.21209420800005,342.21214933900046,None,342.21225974700064,342.2122968450003,None,,,,,,,,,,,,,,,2,001,0,,2024-05-30_13h54.26.491,replicate_nsd,2023.2.3,59.979858883651204,2024-05-30 13h54.39.749683 -0400,
images/paired_image_949_1.png,58,0,0,0,0,"[9, 19, 29, 39, 49, 59, 68, 69, 70, 71]",,,,,0,58,58,58,342.23285411100005,,,,,,,,,,,,,,,,,,,,,,,,,,,,,,,,,,,,,,,,,,,,,,342.2126780760009,342.2127993870017,342.2128121020014,342.23285411100005,342.23285411100005,343.22785454400037,343.22785454400037,346.2277301140002,346.2277301140002,346.2277301140002,346.2277301140002,346.2114498380015,1,1,1.387729373998809,None,None,346.21204028600005,346.21208318700155,None,346.212189191001,346.2122422870016,None,346.21234996300154,346.2123869620009,None,,,,,,,,,,,,,,,2,001,0,,2024-05-30_13h54.26.491,replicate_nsd,2023.2.3,59.979858883651204,2024-05-30 13h54.39.749683 -0400,
blank.jpg,59,1,0,0,0,"[9, 19, 29, 39, 49, 59, 68, 69, 70, 71]",,,,,0,59,59,59,346.2277301140002,,,,,,,,,,,,,,,,,,,,,,,,,,,,,,,,,,,,,,,,,,,,,,346.2127583290003,346.21287909500097,346.2128916270012,,,,,,,,,346.21625843200127,None,0,,,None,346.21657789000164,350.21164833400144,None,350.2118643360009,350.21192336900094,None,350.21205375200043,350.2120924440005,None,346.2277301140002,346.2277301140002,350.2339219740006,350.2339219740006,,,,,,,,,,,2,001,0,,2024-05-30_13h54.26.491,replicate_nsd,2023.2.3,59.979858883651204,2024-05-30 13h54.39.749683 -0400,
images/image_492_seed_1.png,60,0,0,0,0,"[9, 19, 29, 39, 49, 59, 68, 69, 70, 71]",,,,,0,60,60,60,350.2339219740006,,,,,,,,,,,,,,,,,,,,,,,,,,,,,,,,,,,,,,,,,,,,,,350.2124925730004,350.2126139640004,350.2126262620004,350.2339219740006,350.2339219740006,351.2279004390002,351.2279004390002,354.2294524930003,354.2294524930003,354.2294524930003,354.2294524930003,354.2107323770015,1,1,0.5775820839990047,None,None,354.2110553120001,354.2110796950001,None,354.2111389220008,354.21116937900115,None,354.2112288740009,354.2112489880001,None,,,,,,,,,,,,,,,2,001,0,,2024-05-30_13h54.26.491,replicate_nsd,2023.2.3,59.979858883651204,2024-05-30 13h54.39.749683 -0400,
images/image_533_seed_1.png,61,0,0,0,0,"[9, 19, 29, 39, 49, 59, 68, 69, 70, 71]",,,,,0,61,61,61,354.2294524930003,,,,,,,,,,,,,,,,,,,,,,,,,,,,,,,,,,,,,,,,,,,,,,354.21145741300097,354.2115240920011,354.21153098600007,354.2294524930003,354.2294524930003,355.22820376800155,355.22820376800155,358.2340062560015,358.2340062560015,358.2340062560015,358.2340062560015,358.2119860620005,1,1,1.4692198569991888,None,None,358.21259421300056,358.21263864900175,None,358.21274816000005,358.21280243,None,358.2129126890013,358.2129501840009,None,,,,,,,,,,,,,,,2,001,0,,2024-05-30_13h54.26.491,replicate_nsd,2023.2.3,59.979858883651204,2024-05-30 13h54.39.749683 -0400,
images/image_74_seed_1.png,62,0,0,0,0,"[9, 19, 29, 39, 49, 59, 68, 69, 70, 71]",,,,,0,62,62,62,358.2340062560015,,,,,,,,,,,,,,,,,,,,,,,,,,,,,,,,,,,,,,,,,,,,,,358.2133347860017,358.21346040700155,358.21347355500075,358.2340062560015,358.2340062560015,359.2282407470011,359.2282407470011,362.2333363630005,362.2333363630005,362.2333363630005,362.2333363630005,362.21182432800015,1,1,2.740339544001472,None,None,362.21242743400035,362.21247138800027,None,362.2125812920003,362.21263549000105,None,362.21274607300074,362.21278203600014,None,,,,,,,,,,,,,,,2,001,0,,2024-05-30_13h54.26.491,replicate_nsd,2023.2.3,59.979858883651204,2024-05-30 13h54.39.749683 -0400,
images/image_588_seed_1.png,63,0,0,0,0,"[9, 19, 29, 39, 49, 59, 68, 69, 70, 71]",,,,,0,63,63,63,362.2333363630005,,,,,,,,,,,,,,,,,,,,,,,,,,,,,,,,,,,,,,,,,,,,,,362.2131613830006,362.2132829000002,362.213295339001,362.2333363630005,362.2333363630005,363.2281604640011,363.2281604640011,366.23474337900007,366.23474337900007,366.23474337900007,366.23474337900007,366.2122655050007,1,1,2.4414346929988824,None,None,366.21304697900086,366.2130899060012,None,366.21319836100156,366.2132523580003,None,366.2133627310013,366.21339908400114,None,,,,,,,,,,,,,,,2,001,0,,2024-05-30_13h54.26.491,replicate_nsd,2023.2.3,59.979858883651204,2024-05-30 13h54.39.749683 -0400,
images/image_473_seed_1.png,64,0,1,0,0,"[9, 19, 29, 39, 49, 59, 68, 69, 70, 71]",,,,,0,64,64,64,366.23474337900007,,,,,,,,,,,,,,,,,,,,,,,,,,,,,,,,,,,,,,,,,,,,,,366.2137777250009,366.2138991840002,366.21391201200095,366.23474337900007,366.23474337900007,367.2284019450017,367.2284019450017,370.2363526300014,370.2363526300014,370.2363526300014,370.2363526300014,370.2124599660001,2,1,1.55718214099943,None,None,370.2132449690016,370.213288111001,None,370.21339879900006,370.21345341900087,None,370.21356404200014,370.2136011750008,None,,,,,,,,,,,,,,,2,001,0,,2024-05-30_13h54.26.491,replicate_nsd,2023.2.3,59.979858883651204,2024-05-30 13h54.39.749683 -0400,
images/image_44_seed_1.png,65,0,0,0,0,"[9, 19, 29, 39, 49, 59, 68, 69, 70, 71]",,,,,0,65,65,65,370.2363526300014,,,,,,,,,,,,,,,,,,,,,,,,,,,,,,,,,,,,,,,,,,,,,,370.21398287400007,370.21410486600143,370.2141173850014,370.2363526300014,370.2363526300014,371.22860832900005,371.22860832900005,374.2342836960015,374.2342836960015,374.2342836960015,374.2342836960015,374.21231964600156,1,1,2.3569764959993336,None,None,374.21292396900026,374.21296729000096,None,374.2130762710003,374.2131295400013,None,374.21323904900055,374.2132753320002,None,,,,,,,,,,,,,,,2,001,0,,2024-05-30_13h54.26.491,replicate_nsd,2023.2.3,59.979858883651204,2024-05-30 13h54.39.749683 -0400,
images/image_574_seed_1.png,66,0,0,0,0,"[9, 19, 29, 39, 49, 59, 68, 69, 70, 71]",,,,,0,66,66,66,374.2342836960015,,,,,,,,,,,,,,,,,,,,,,,,,,,,,,,,,,,,,,,,,,,,,,374.21365471800164,374.2137755970016,374.2137882060015,374.2342836960015,374.2342836960015,375.22864791600114,375.22864791600114,378.23453836000044,378.23453836000044,378.23453836000044,378.23453836000044,378.21257819700077,1,1,2.010811530000865,None,None,378.21318336900003,378.2132271190003,None,378.2133357800012,378.21338999300133,None,378.2135002940013,378.2135371410004,None,,,,,,,,,,,,,,,2,001,0,,2024-05-30_13h54.26.491,replicate_nsd,2023.2.3,59.979858883651204,2024-05-30 13h54.39.749683 -0400,
images/image_564_seed_1.png,67,0,0,0,0,"[9, 19, 29, 39, 49, 59, 68, 69, 70, 71]",,,,,0,67,67,67,378.23453836000044,,,,,,,,,,,,,,,,,,,,,,,,,,,,,,,,,,,,,,,,,,,,,,378.2139159040016,378.21403644600105,378.21404923700175,378.23453836000044,378.23453836000044,379.2287928980004,379.2287928980004,382.22893998400104,382.22893998400104,382.22893998400104,382.22893998400104,382.2125454670004,1,1,1.7607576880000124,None,None,382.2131544510012,382.2131981950006,None,382.2133055460017,382.2133602590002,None,382.2134702830008,382.21350707000056,None,,,,,,,,,,,,,,,2,001,0,,2024-05-30_13h54.26.491,replicate_nsd,2023.2.3,59.979858883651204,2024-05-30 13h54.39.749683 -0400,
blank.jpg,68,1,0,0,0,"[9, 19, 29, 39, 49, 59, 68, 69, 70, 71]",,,,,0,68,68,68,382.22893998400104,,,,,,,,,,,,,,,,,,,,,,,,,,,,,,,,,,,,,,,,,,,,,,382.21388309600115,382.21400553200147,382.2140181930008,,,,,,,,,382.2172085580005,None,0,,,None,382.21749314299996,386.2125614530014,None,386.21277763700164,386.21283687100004,None,386.2129653260017,386.2130044100013,None,382.22893998400104,382.22893998400104,386.22901433300103,386.22901433300103,,,,,,,,,,,2,001,0,,2024-05-30_13h54.26.491,replicate_nsd,2023.2.3,59.979858883651204,2024-05-30 13h54.39.749683 -0400,
blank.jpg,69,1,0,0,0,"[9, 19, 29, 39, 49, 59, 68, 69, 70, 71]",,,,,0,69,69,69,386.22901433300103,,,,,,,,,,,,,,,,,,,,,,,,,,,,,,,,,,,,,,,,,,,,,,386.2133989770009,386.2135198010001,386.21353251000073,,,,,,,,,386.21591342600004,None,0,,,None,386.21623755700057,390.2126367760011,None,390.21285476200137,390.21291308200125,None,390.2130420090016,390.21308006100116,None,386.22901433300103,386.22901433300103,390.2290287630003,390.2290287630003,,,,,,,,,,,2,001,0,,2024-05-30_13h54.26.491,replicate_nsd,2023.2.3,59.979858883651204,2024-05-30 13h54.39.749683 -0400,
blank.jpg,70,1,0,0,0,"[9, 19, 29, 39, 49, 59, 68, 69, 70, 71]",,,,,0,70,70,70,390.2290287630003,,,,,,,,,,,,,,,,,,,,,,,,,,,,,,,,,,,,,,,,,,,,,,390.21347806800077,390.2135979630002,390.2136105950012,,,,,,,,,390.2160599300005,None,0,,,None,390.21638240800166,394.2129319100004,None,394.21324777100017,394.2133363440007,None,394.2135265600009,394.2135643970014,None,390.2290287630003,390.2290287630003,394.2291553720006,394.2291553720006,,,,,,,,,,,2,001,0,,2024-05-30_13h54.26.491,replicate_nsd,2023.2.3,59.979858883651204,2024-05-30 13h54.39.749683 -0400,
blank.jpg,71,1,0,1,0,"[9, 19, 29, 39, 49, 59, 68, 69, 70, 71]",,,,,0,71,71,71,394.2291553720006,,,,,,,,,,,,,,,,,,,,,,,,,,,,,,,,,,,,,,,,,,,,,,394.213959744,394.2140812590005,394.21409394700095,,,,,,,,,394.21672964000027,None,0,,,None,394.2170956410009,398.2127984180006,None,398.21301321600004,454.3641135750004,1,454.3649480490003,466.54751788200156,equal,394.2291553720006,394.2291553720006,398.2328495090005,398.2328495090005,,,398.2328495090005,398.2328495090005,56.12870662599926,None,454.3807947110017,454.3807947110017,12.16375556300045,None,2,001,0,,2024-05-30_13h54.26.491,replicate_nsd,2023.2.3,59.979858883651204,2024-05-30 13h54.39.749683 -0400,
images/6_44.png,0,0,0,0,1,"[9, 19, 31, 42, 56, 68, 69, 70, 71]",,,,,0,72,72,72,466.56452441500005,,,,,,,,,,,,,,,,,,,,,,,,,,,,,,,,,,,,,,,,,,,,,,466.5485765880003,466.5486574330007,466.5486659800008,466.56452441500005,466.56452441500005,467.5641402190013,467.5641402190013,470.5699332210006,470.5699332210006,470.5699332210006,470.5699332210006,470.5480711770015,1,1,1.73345395600154,None,None,470.5487364620003,470.548788954,None,470.5489090150004,470.5489677080004,None,470.54908734900164,470.5491253980017,None,,,,,,,,,,,,,,,2,001,0,,2024-05-30_13h54.26.491,replicate_nsd,2023.2.3,59.979858883651204,2024-05-30 13h54.39.749683 -0400,
images/image_496_seed_1.png,1,0,0,0,1,"[9, 19, 31, 42, 56, 68, 69, 70, 71]",,,,,0,73,73,73,470.5699332210006,,,,,,,,,,,,,,,,,,,,,,,,,,,,,,,,,,,,,,,,,,,,,,470.5495104520014,470.54963924300137,470.5496521540008,470.5699332210006,470.5699332210006,471.56442218900156,471.56442218900156,474.57016215100157,474.57016215100157,474.57016215100157,474.57016215100157,474.54807727500156,1,1,1.3470720200002688,None,None,474.5487338840012,474.5487838650006,None,474.54889128000104,474.5489477930005,None,474.54905740600043,474.5490932950015,None,,,,,,,,,,,,,,,2,001,0,,2024-05-30_13h54.26.491,replicate_nsd,2023.2.3,59.979858883651204,2024-05-30 13h54.39.749683 -0400,
images/image_420_seed_1.png,2,0,0,0,1,"[9, 19, 31, 42, 56, 68, 69, 70, 71]",,,,,0,74,74,74,474.57016215100157,,,,,,,,,,,,,,,,,,,,,,,,,,,,,,,,,,,,,,,,,,,,,,474.54947202100084,474.54960113200104,474.549613303001,474.57016215100157,474.57016215100157,475.56433633600136,475.56433633600136,478.57088017300157,478.57088017300157,478.57088017300157,478.57088017300157,478.5480169580005,1,1,1.7681070039998303,None,None,478.5484426760013,478.5484725260012,None,478.5485483820012,478.54858740300006,None,478.548663036001,478.54868842700125,None,,,,,,,,,,,,,,,2,001,0,,2024-05-30_13h54.26.491,replicate_nsd,2023.2.3,59.979858883651204,2024-05-30 13h54.39.749683 -0400,
images/image_278_seed_1.png,3,0,0,0,1,"[9, 19, 31, 42, 56, 68, 69, 70, 71]",,,,,0,75,75,75,478.57088017300157,,,,,,,,,,,,,,,,,,,,,,,,,,,,,,,,,,,,,,,,,,,,,,478.54895644500175,478.5490416140001,478.54905031199996,478.57088017300157,478.57088017300157,479.5646574910006,479.5646574910006,482.57041626700084,482.57041626700084,482.57041626700084,482.57041626700084,482.5483268960015,1,1,1.437914357000409,None,None,482.54892308500166,482.5489660210005,None,482.54907244100104,482.5491281450013,None,482.54923719100043,482.5492740520003,None,,,,,,,,,,,,,,,2,001,0,,2024-05-30_13h54.26.491,replicate_nsd,2023.2.3,59.979858883651204,2024-05-30 13h54.39.749683 -0400,
images/image_570_seed_1.png,4,0,0,0,1,"[9, 19, 31, 42, 56, 68, 69, 70, 71]",,,,,0,76,76,76,482.57041626700084,,,,,,,,,,,,,,,,,,,,,,,,,,,,,,,,,,,,,,,,,,,,,,482.5496519390017,482.5497730730003,482.5497856460006,482.57041626700084,482.57041626700084,483.56472251000014,483.56472251000014,486.570843937001,486.570843937001,486.570843937001,486.570843937001,486.5480375270017,1,1,1.904892832000769,None,None,486.5486561530015,486.54870130400013,None,486.5488109320013,486.5488677120011,None,486.54897968500154,486.54901694399996,None,,,,,,,,,,,,,,,2,001,0,,2024-05-30_13h54.26.491,replicate_nsd,2023.2.3,59.979858883651204,2024-05-30 13h54.39.749683 -0400,
images/image_437_seed_1.png,5,0,0,0,1,"[9, 19, 31, 42, 56, 68, 69, 70, 71]",,,,,0,77,77,77,486.570843937001,,,,,,,,,,,,,,,,,,,,,,,,,,,,,,,,,,,,,,,,,,,,,,486.549398739,486.54952271600087,486.5495355290004,486.570843937001,486.570843937001,487.56455186200037,487.56455186200037,490.57169117600097,490.57169117600097,490.57169117600097,490.57169117600097,490.5481716060003,1,1,2.394026866999411,None,None,490.548596224,490.54862659300125,None,490.5487012570011,490.5487413190003,None,490.54901892600174,490.54904562900083,None,,,,,,,,,,,,,,,2,001,0,,2024-05-30_13h54.26.491,replicate_nsd,2023.2.3,59.979858883651204,2024-05-30 13h54.39.749683 -0400,
images/image_550_seed_1.png,6,0,0,0,1,"[9, 19, 31, 42, 56, 68, 69, 70, 71]",,,,,0,78,78,78,490.57169117600097,,,,,,,,,,,,,,,,,,,,,,,,,,,,,,,,,,,,,,,,,,,,,,490.5493103730005,490.5493958650004,490.54940475700096,490.57169117600097,490.57169117600097,491.5650454030001,491.5650454030001,494.5701442520003,494.5701442520003,494.5701442520003,494.5701442520003,494.54865003800114,2,0,2.0764134889996058,None,None,494.54925134600126,494.5492991710016,None,494.5494087700008,494.54946450100033,None,494.54957501900026,494.54961162400105,None,,,,,,,,,,,,,,,2,001,0,,2024-05-30_13h54.26.491,replicate_nsd,2023.2.3,59.979858883651204,2024-05-30 13h54.39.749683 -0400,
images/image_392_seed_1.png,7,0,0,0,1,"[9, 19, 31, 42, 56, 68, 69, 70, 71]",,,,,0,79,79,79,494.5701442520003,,,,,,,,,,,,,,,,,,,,,,,,,,,,,,,,,,,,,,,,,,,,,,494.5499829700002,494.55010510100146,494.55011747200115,494.5701442520003,494.5701442520003,495.5650762180012,495.5650762180012,498.57026101500014,498.57026101500014,498.57026101500014,498.57026101500014,498.5489846440014,1,1,2.0255353140000807,None,None,498.54959038700144,498.54963540600147,None,498.54974423600106,498.5497994010002,None,498.54990977500165,498.54994697800066,None,,,,,,,,,,,,,,,2,001,0,,2024-05-30_13h54.26.491,replicate_nsd,2023.2.3,59.979858883651204,2024-05-30 13h54.39.749683 -0400,
images/image_61_seed_1.png,8,0,0,0,1,"[9, 19, 31, 42, 56, 68, 69, 70, 71]",,,,,0,80,80,80,498.57026101500014,,,,,,,,,,,,,,,,,,,,,,,,,,,,,,,,,,,,,,,,,,,,,,498.55032826700153,498.5504502950007,498.55046305200085,498.57026101500014,498.57026101500014,499.5649443120001,499.5649443120001,502.56482062800023,502.56482062800023,502.56482062800023,502.56482062800023,502.5482872730008,1,1,2.3936076299996785,None,None,502.5487047200004,502.54873426200174,None,502.54880746800154,502.54884594300165,None,502.5489195070004,502.54894372000126,None,,,,,,,,,,,,,,,2,001,0,,2024-05-30_13h54.26.491,replicate_nsd,2023.2.3,59.979858883651204,2024-05-30 13h54.39.749683 -0400,
blank.jpg,9,1,0,0,1,"[9, 19, 31, 42, 56, 68, 69, 70, 71]",,,,,0,81,81,81,502.56482062800023,,,,,,,,,,,,,,,,,,,,,,,,,,,,,,,,,,,,,,,,,,,,,,502.5492004550015,502.5492843460015,502.54929311700107,,,,,,,,,502.5517720750013,None,0,,,None,502.55200983600116,506.548881101,None,506.5490983840009,506.5491589910016,None,506.54928904200096,506.54932710900175,None,502.56482062800023,502.56482062800023,506.57217255400064,506.57217255400064,,,,,,,,,,,2,001,0,,2024-05-30_13h54.26.491,replicate_nsd,2023.2.3,59.979858883651204,2024-05-30 13h54.39.749683 -0400,
images/image_475_seed_1.png,10,0,0,0,1,"[9, 19, 31, 42, 56, 68, 69, 70, 71]",,,,,0,82,82,82,506.57217255400064,,,,,,,,,,,,,,,,,,,,,,,,,,,,,,,,,,,,,,,,,,,,,,506.54973275200064,506.5498533810005,506.5498662630016,506.57217255400064,506.57217255400064,507.56531429999995,507.56531429999995,510.5710879040016,510.5710879040016,510.5710879040016,510.5710879040016,510.54899864100116,1,1,1.1651645170004485,None,None,510.5496068580014,510.5496694830017,None,510.5497579410003,510.54980364100084,None,510.5498940160014,510.54992399,None,,,,,,,,,,,,,,,2,001,0,,2024-05-30_13h54.26.491,replicate_nsd,2023.2.3,59.979858883651204,2024-05-30 13h54.39.749683 -0400,
images/image_638_seed_1.png,11,0,0,0,1,"[9, 19, 31, 42, 56, 68, 69, 70, 71]",,,,,0,83,83,83,510.5710879040016,,,,,,,,,,,,,,,,,,,,,,,,,,,,,,,,,,,,,,,,,,,,,,510.55023333900135,510.5503322830009,510.55034250600147,510.5710879040016,510.5710879040016,511.5652861770013,511.5652861770013,514.5719399220015,514.5719399220015,514.5719399220015,514.5719399220015,514.5484672160001,1,1,1.3873146509995422,None,None,514.5488957350008,514.5489260570012,None,514.5490015200012,514.5490407040015,None,514.5491181840007,514.549144132001,None,,,,,,,,,,,,,,,2,001,0,,2024-05-30_13h54.26.491,replicate_nsd,2023.2.3,59.979858883651204,2024-05-30 13h54.39.749683 -0400,
images/image_312_seed_1.png,12,0,0,0,1,"[9, 19, 31, 42, 56, 68, 69, 70, 71]",,,,,0,84,84,84,514.5719399220015,,,,,,,,,,,,,,,,,,,,,,,,,,,,,,,,,,,,,,,,,,,,,,514.5494100380001,514.5494939380005,514.5495028740006,514.5719399220015,514.5719399220015,515.5654159400001,515.5654159400001,518.5707172860002,518.5707172860002,518.5707172860002,518.5707172860002,518.5493653930007,1,1,1.514138358999844,None,None,518.5499781400013,518.5500223420004,None,518.5501326270005,518.5501894770005,None,518.5503030500004,518.5503398590008,None,,,,,,,,,,,,,,,2,001,0,,2024-05-30_13h54.26.491,replicate_nsd,2023.2.3,59.979858883651204,2024-05-30 13h54.39.749683 -0400,
images/image_746_seed_1.png,13,0,0,0,1,"[9, 19, 31, 42, 56, 68, 69, 70, 71]",,,,,0,85,85,85,518.5707172860002,,,,,,,,,,,,,,,,,,,,,,,,,,,,,,,,,,,,,,,,,,,,,,518.5507213320016,518.5508436680011,518.550856187001,518.5707172860002,518.5707172860002,519.5657134970006,519.5657134970006,522.571713700001,522.571713700001,522.571713700001,522.571713700001,522.5493377090006,1,1,2.1038840870005515,None,None,522.5499471120002,522.5499912880005,None,522.5501019900003,522.5501597300008,None,522.5502719180004,522.5503087650013,None,,,,,,,,,,,,,,,2,001,0,,2024-05-30_13h54.26.491,replicate_nsd,2023.2.3,59.979858883651204,2024-05-30 13h54.39.749683 -0400,
images/image_544_seed_1.png,14,0,0,0,1,"[9, 19, 31, 42, 56, 68, 69, 70, 71]",,,,,0,86,86,86,522.571713700001,,,,,,,,,,,,,,,,,,,,,,,,,,,,,,,,,,,,,,,,,,,,,,522.550692402001,522.5510798370015,522.5510942540004,522.571713700001,522.571713700001,523.5649434730003,523.5649434730003,526.5725082450008,526.5725082450008,526.5725082450008,526.5725082450008,526.5488910420008,1,1,2.6344928970011097,None,None,526.5493122830012,526.5493418260012,None,526.5494146520014,526.5494532040011,None,526.549527395,526.5495522500005,None,,,,,,,,,,,,,,,2,001,0,,2024-05-30_13h54.26.491,replicate_nsd,2023.2.3,59.979858883651204,2024-05-30 13h54.39.749683 -0400,
images/paired_image_547_2.png,15,0,0,0,1,"[9, 19, 31, 42, 56, 68, 69, 70, 71]",,,,,0,87,87,87,526.5725082450008,,,,,,,,,,,,,,,,,,,,,,,,,,,,,,,,,,,,,,,,,,,,,,526.5498096770007,526.5498933830004,526.5499017500006,526.5725082450008,526.5725082450008,527.5658775850006,527.5658775850006,530.5721404180003,530.5721404180003,530.5721404180003,530.5721404180003,530.5493241650001,1,1,2.1306985829996847,None,None,530.5499224110008,530.5499655900003,None,530.5500724630001,530.5501288630003,None,530.5502394290015,530.550276901,None,,,,,,,,,,,,,,,2,001,0,,2024-05-30_13h54.26.491,replicate_nsd,2023.2.3,59.979858883651204,2024-05-30 13h54.39.749683 -0400,
images/image_121_seed_1.png,16,0,0,0,1,"[9, 19, 31, 42, 56, 68, 69, 70, 71]",,,,,0,88,88,88,530.5721404180003,,,,,,,,,,,,,,,,,,,,,,,,,,,,,,,,,,,,,,,,,,,,,,530.550657785001,530.5507781320011,530.5507904810001,530.5721404180003,530.5721404180003,531.5659529580007,531.5659529580007,534.5710170290004,534.5710170290004,534.5710170290004,534.5710170290004,534.549623279001,1,1,1.5674816070004454,None,None,534.5501413520014,534.5501751890006,None,534.5502609920004,534.5503051260002,None,534.5503926930014,534.5504221820011,None,,,,,,,,,,,,,,,2,001,0,,2024-05-30_13h54.26.491,replicate_nsd,2023.2.3,59.979858883651204,2024-05-30 13h54.39.749683 -0400,
images/image_84_seed_1.png,17,0,0,0,1,"[9, 19, 31, 42, 56, 68, 69, 70, 71]",,,,,0,89,89,89,534.5710170290004,,,,,,,,,,,,,,,,,,,,,,,,,,,,,,,,,,,,,,,,,,,,,,534.5507304040002,534.5508281860002,534.5508384190016,534.5710170290004,534.5710170290004,535.5659488730016,535.5659488730016,538.5723590140005,538.5723590140005,538.5723590140005,538.5723590140005,538.5491107370017,1,1,1.7416573729988158,None,None,538.5495273420001,538.5495566980007,None,538.5496282690001,538.5496665530009,None,538.5497412160003,538.5497660920009,None,,,,,,,,,,,,,,,2,001,0,,2024-05-30_13h54.26.491,replicate_nsd,2023.2.3,59.979858883651204,2024-05-30 13h54.39.749683 -0400,
images/image_277_seed_1.png,18,0,0,0,1,"[9, 19, 31, 42, 56, 68, 69, 70, 71]",,,,,0,90,90,90,538.5723590140005,,,,,,,,,,,,,,,,,,,,,,,,,,,,,,,,,,,,,,,,,,,,,,538.550021518,538.5501049850009,538.5501135880004,538.5723590140005,538.5723590140005,539.5662133370006,539.5662133370006,542.5663320430012,542.5663320430012,542.5663320430012,542.5663320430012,542.5499632160008,1,1,1.6842205649991229,None,None,542.5505725200001,542.550615999,None,542.5507245060016,542.5507801990007,None,542.5508906340001,542.5509272360014,None,,,,,,,,,,,,,,,2,001,0,,2024-05-30_13h54.26.491,replicate_nsd,2023.2.3,59.979858883651204,2024-05-30 13h54.39.749683 -0400,
blank.jpg,19,1,0,0,1,"[9, 19, 31, 42, 56, 68, 69, 70, 71]",,,,,0,91,91,91,542.5663320430012,,,,,,,,,,,,,,,,,,,,,,,,,,,,,,,,,,,,,,,,,,,,,,542.5513053780014,542.5514278400005,542.5514406670009,,,,,,,,,542.5551609960003,None,0,,,None,542.5555520820017,546.5499203170002,None,546.5501382680013,546.5501986980016,None,546.55033018,546.5503689060006,None,542.5663320430012,542.5663320430012,546.5722479710003,546.5722479710003,,,,,,,,,,,2,001,0,,2024-05-30_13h54.26.491,replicate_nsd,2023.2.3,59.979858883651204,2024-05-30 13h54.39.749683 -0400,
images/image_170_seed_1.png,20,0,0,0,1,"[9, 19, 31, 42, 56, 68, 69, 70, 71]",,,,,0,92,92,92,546.5722479710003,,,,,,,,,,,,,,,,,,,,,,,,,,,,,,,,,,,,,,,,,,,,,,546.5507383850018,546.5508376490016,546.5508477500007,546.5722479710003,546.5722479710003,547.5662358240006,547.5662358240006,550.5657576600006,550.5657576600006,550.5657576600006,550.5657576600006,550.5493457840003,1,1,1.799338587999955,None,None,550.5497560390013,550.5497857720002,None,550.5498588180017,550.5498971270008,None,550.5499715860005,550.5499959750014,None,,,,,,,,,,,,,,,2,001,0,,2024-05-30_13h54.26.491,replicate_nsd,2023.2.3,59.979858883651204,2024-05-30 13h54.39.749683 -0400,
images/6_89.png,21,0,0,0,1,"[9, 19, 31, 42, 56, 68, 69, 70, 71]",,,,,0,93,93,93,550.5657576600006,,,,,,,,,,,,,,,,,,,,,,,,,,,,,,,,,,,,,,,,,,,,,,550.5502485180004,550.5503297790001,550.550338383,550.5657576600006,550.5657576600006,551.5664697170014,551.5664697170014,554.572874290001,554.572874290001,554.572874290001,554.572874290001,554.550221208001,2,0,1.7790043130007689,None,None,554.5508165380015,554.5508600890007,None,554.5509673630004,554.5510226200004,None,554.5511323110004,554.5511683570003,None,,,,,,,,,,,,,,,2,001,0,,2024-05-30_13h54.26.491,replicate_nsd,2023.2.3,59.979858883651204,2024-05-30 13h54.39.749683 -0400,
images/image_467_seed_1.png,22,0,0,0,1,"[9, 19, 31, 42, 56, 68, 69, 70, 71]",,,,,0,94,94,94,554.572874290001,,,,,,,,,,,,,,,,,,,,,,,,,,,,,,,,,,,,,,,,,,,,,,554.5515467000005,554.5516684920003,554.5516812740007,554.572874290001,554.572874290001,555.5658968440002,555.5658968440002,558.570769512,558.570769512,558.570769512,558.570769512,558.5499437280014,1,1,1.5965265219983849,None,None,558.5505166720013,558.5505591200017,None,558.5506657140013,558.5507204180012,None,558.550830137001,558.550867467,None,,,,,,,,,,,,,,,2,001,0,,2024-05-30_13h54.26.491,replicate_nsd,2023.2.3,59.979858883651204,2024-05-30 13h54.39.749683 -0400,
images/image_557_seed_1.png,23,0,0,0,1,"[9, 19, 31, 42, 56, 68, 69, 70, 71]",,,,,0,95,95,95,558.570769512,,,,,,,,,,,,,,,,,,,,,,,,,,,,,,,,,,,,,,,,,,,,,,558.5512429450009,558.551364934001,558.551378002001,558.570769512,558.570769512,559.5659627740006,559.5659627740006,562.5684205430007,562.5684205430007,562.5684205430007,562.5684205430007,562.5491710210008,1,1,1.6895188369999232,None,None,562.5495068830005,562.5495309570015,None,562.5495891070004,562.549638972001,None,562.5497169170012,562.5497372200007,None,,,,,,,,,,,,,,,2,001,0,,2024-05-30_13h54.26.491,replicate_nsd,2023.2.3,59.979858883651204,2024-05-30 13h54.39.749683 -0400,
images/image_180_seed_1.png,24,0,0,0,1,"[9, 19, 31, 42, 56, 68, 69, 70, 71]",,,,,0,96,96,96,562.5684205430007,,,,,,,,,,,,,,,,,,,,,,,,,,,,,,,,,,,,,,,,,,,,,,562.5499577930004,562.5500478460017,562.5500557470004,562.5684205430007,562.5684205430007,563.5658546540017,563.5658546540017,566.5707351370002,566.5707351370002,566.5707351370002,566.5707351370002,566.5498538700012,1,1,2.5056279659984284,None,None,566.5504274140003,566.5504707340006,None,566.5505788390001,566.5506354280005,None,566.5507449160013,566.5507814340017,None,,,,,,,,,,,,,,,2,001,0,,2024-05-30_13h54.26.491,replicate_nsd,2023.2.3,59.979858883651204,2024-05-30 13h54.39.749683 -0400,
images/image_742_seed_1.png,25,0,0,0,1,"[9, 19, 31, 42, 56, 68, 69, 70, 71]",,,,,0,97,97,97,566.5707351370002,,,,,,,,,,,,,,,,,,,,,,,,,,,,,,,,,,,,,,,,,,,,,,566.5511527490016,566.5512734600015,566.5512863420008,566.5707351370002,566.5707351370002,567.5663566230014,567.5663566230014,570.5700791420004,570.5700791420004,570.5700791420004,570.5700791420004,570.5495712470001,1,1,1.2840721040010976,None,None,570.5499269990014,570.5499510990012,None,570.5500098710017,570.5500416540017,None,570.5501020540014,570.5501218680001,None,,,,,,,,,,,,,,,2,001,0,,2024-05-30_13h54.26.491,replicate_nsd,2023.2.3,59.979858883651204,2024-05-30 13h54.39.749683 -0400,
images/image_6_seed_1.png,26,0,0,0,1,"[9, 19, 31, 42, 56, 68, 69, 70, 71]",,,,,0,98,98,98,570.5700791420004,,,,,,,,,,,,,,,,,,,,,,,,,,,,,,,,,,,,,,,,,,,,,,570.5503355480014,570.5504045790003,570.5504116240008,570.5700791420004,570.5700791420004,571.5664186250015,571.5664186250015,574.5717474380017,574.5717474380017,574.5717474380017,574.5717474380017,574.549667139001,1,1,1.8600542680014769,None,None,574.5500448840012,574.5500733500012,None,574.5501420610017,574.5501777750014,None,574.5502476430011,574.5502714050017,None,,,,,,,,,,,,,,,2,001,0,,2024-05-30_13h54.26.491,replicate_nsd,2023.2.3,59.979858883651204,2024-05-30 13h54.39.749683 -0400,
images/image_591_seed_1.png,27,0,0,0,1,"[9, 19, 31, 42, 56, 68, 69, 70, 71]",,,,,0,99,99,99,574.5717474380017,,,,,,,,,,,,,,,,,,,,,,,,,,,,,,,,,,,,,,,,,,,,,,574.5505149830005,574.5505982180002,574.5506052540004,574.5717474380017,574.5717474380017,575.5666395140015,575.5666395140015,578.5719431690013,578.5719431690013,578.5719431690013,578.5719431690013,578.5503405900017,1,1,0.8638199750002968,None,None,578.550909431,578.5509535420006,None,578.5510616260017,578.5511176550008,None,578.5512268410002,578.5512640100005,None,,,,,,,,,,,,,,,2,001,0,,2024-05-30_13h54.26.491,replicate_nsd,2023.2.3,59.979858883651204,2024-05-30 13h54.39.749683 -0400,
images/image_722_seed_1.png,28,0,0,0,1,"[9, 19, 31, 42, 56, 68, 69, 70, 71]",,,,,0,100,100,100,578.5719431690013,,,,,,,,,,,,,,,,,,,,,,,,,,,,,,,,,,,,,,,,,,,,,,578.551635621001,578.5517549650012,578.551767504001,578.5719431690013,578.5719431690013,579.5666159000011,579.5666159000011,582.5720880520003,582.5720880520003,582.5720880520003,582.5720880520003,582.5503813080013,1,1,1.6238206470006844,None,None,582.5509501190008,582.5509927260009,None,582.5510977680005,582.5511521580011,None,582.5512590070011,582.5512954920014,None,,,,,,,,,,,,,,,2,001,0,,2024-05-30_13h54.26.491,replicate_nsd,2023.2.3,59.979858883651204,2024-05-30 13h54.39.749683 -0400,
images/image_567_seed_1.png,29,0,0,0,1,"[9, 19, 31, 42, 56, 68, 69, 70, 71]",,,,,0,101,101,101,582.5720880520003,,,,,,,,,,,,,,,,,,,,,,,,,,,,,,,,,,,,,,,,,,,,,,582.5516629730009,582.5517826330015,582.5517950530011,582.5720880520003,582.5720880520003,583.5661770240004,583.5661770240004,586.5717165200003,586.5717165200003,586.5717165200003,586.5717165200003,586.5499559030013,1,1,1.582291372000327,None,None,586.5503348900002,586.5503625390011,None,586.5504313670008,586.5504683440013,None,586.5505380520008,586.5505612830002,None,,,,,,,,,,,,,,,2,001,0,,2024-05-30_13h54.26.491,replicate_nsd,2023.2.3,59.979858883651204,2024-05-30 13h54.39.749683 -0400,
images/image_366_seed_1.png,30,0,0,0,1,"[9, 19, 31, 42, 56, 68, 69, 70, 71]",,,,,0,102,102,102,586.5717165200003,,,,,,,,,,,,,,,,,,,,,,,,,,,,,,,,,,,,,,,,,,,,,,586.550802926,586.5508807620008,586.5508888960012,586.5717165200003,586.5717165200003,587.5668409930004,587.5668409930004,590.5673750130009,590.5673750130009,590.5673750130009,590.5673750130009,590.5511040000001,1,1,1.443773267999859,None,None,590.5517001050011,590.55174481,None,590.5518542080008,590.5519092810009,None,590.5520182830005,590.5520541820006,None,,,,,,,,,,,,,,,2,001,0,,2024-05-30_13h54.26.491,replicate_nsd,2023.2.3,59.979858883651204,2024-05-30 13h54.39.749683 -0400,
blank.jpg,31,1,0,0,1,"[9, 19, 31, 42, 56, 68, 69, 70, 71]",,,,,0,103,103,103,590.5673750130009,,,,,,,,,,,,,,,,,,,,,,,,,,,,,,,,,,,,,,,,,,,,,,590.5524321550001,590.5525539740011,590.5525670830011,,,,,,,,,590.5559471390006,None,0,,,None,590.5562605250016,594.5511842530013,None,594.5513986390015,594.5514589660015,None,594.5515876420013,594.5516263620011,None,590.5673750130009,590.5673750130009,594.5737887530013,594.5737887530013,,,,,,,,,,,2,001,0,,2024-05-30_13h54.26.491,replicate_nsd,2023.2.3,59.979858883651204,2024-05-30 13h54.39.749683 -0400,
images/image_228_seed_1.png,32,0,0,0,1,"[9, 19, 31, 42, 56, 68, 69, 70, 71]",,,,,0,104,104,104,594.5737887530013,,,,,,,,,,,,,,,,,,,,,,,,,,,,,,,,,,,,,,,,,,,,,,594.5520227780016,594.5521445140002,594.552156785001,594.5737887530013,594.5737887530013,595.5670686170015,595.5670686170015,598.5732291120003,598.5732291120003,598.5732291120003,598.5732291120003,598.5505982170016,1,1,1.5013407370006462,None,None,598.5510234740013,598.5510533970009,None,598.5511253680015,598.5511629050015,None,598.5512359610002,598.5512603280004,None,,,,,,,,,,,,,,,2,001,0,,2024-05-30_13h54.26.491,replicate_nsd,2023.2.3,59.979858883651204,2024-05-30 13h54.39.749683 -0400,
images/image_516_seed_1.png,33,0,0,0,1,"[9, 19, 31, 42, 56, 68, 69, 70, 71]",,,,,0,105,105,105,598.5732291120003,,,,,,,,,,,,,,,,,,,,,,,,,,,,,,,,,,,,,,,,,,,,,,598.5515121740009,598.5515941940012,598.5516026430014,598.5732291120003,598.5732291120003,599.5677726030008,599.5677726030008,602.5734170270007,602.5734170270007,602.5734170270007,602.5734170270007,602.5510225860016,1,1,1.5217920239992964,None,None,602.5516179730002,602.5516611860003,None,602.5517693720012,602.5518251990015,None,602.5519356410005,602.5519715260016,None,,,,,,,,,,,,,,,2,001,0,,2024-05-30_13h54.26.491,replicate_nsd,2023.2.3,59.979858883651204,2024-05-30 13h54.39.749683 -0400,
images/image_397_seed_1.png,34,0,0,0,1,"[9, 19, 31, 42, 56, 68, 69, 70, 71]",,,,,0,106,106,106,602.5734170270007,,,,,,,,,,,,,,,,,,,,,,,,,,,,,,,,,,,,,,,,,,,,,,602.5523481740001,602.5524708900011,602.5524835790002,602.5734170270007,602.5734170270007,603.5677928520017,603.5677928520017,606.5738855840009,606.5738855840009,606.5738855840009,606.5738855840009,606.5515615210006,1,1,2.242801057998804,None,None,606.5521598570012,606.5522037800001,None,606.5523129170015,606.5523681300001,None,606.5524783850015,606.5525153010003,None,,,,,,,,,,,,,,,2,001,0,,2024-05-30_13h54.26.491,replicate_nsd,2023.2.3,59.979858883651204,2024-05-30 13h54.39.749683 -0400,
images/image_490_seed_1.png,35,0,0,0,1,"[9, 19, 31, 42, 56, 68, 69, 70, 71]",,,,,0,107,107,107,606.5738855840009,,,,,,,,,,,,,,,,,,,,,,,,,,,,,,,,,,,,,,,,,,,,,,606.5528921410005,606.5530136690013,606.5530261050008,606.5738855840009,606.5738855840009,607.5671110840012,607.5671110840012,610.573892544,610.573892544,610.573892544,610.573892544,610.5508673020013,1,1,2.4863310910004657,None,None,610.5513540850006,610.5513884760003,None,610.5514744800003,610.5515200280006,None,610.5516079200006,610.5516371460017,None,,,,,,,,,,,,,,,2,001,0,,2024-05-30_13h54.26.491,replicate_nsd,2023.2.3,59.979858883651204,2024-05-30 13h54.39.749683 -0400,
images/image_607_seed_1.png,36,0,0,0,1,"[9, 19, 31, 42, 56, 68, 69, 70, 71]",,,,,0,108,108,108,610.573892544,,,,,,,,,,,,,,,,,,,,,,,,,,,,,,,,,,,,,,,,,,,,,,610.5519396090003,610.5520382480008,610.552048466001,610.573892544,610.573892544,611.5680205480003,611.5680205480003,614.5733379020003,614.5733379020003,614.5733379020003,614.5733379020003,614.5517858890016,1,1,2.2925780629993824,None,None,614.5523860990015,614.5524295340001,None,614.5525377310005,614.5525943480006,None,614.5527047660016,614.5527426520002,None,,,,,,,,,,,,,,,2,001,0,,2024-05-30_13h54.26.491,replicate_nsd,2023.2.3,59.979858883651204,2024-05-30 13h54.39.749683 -0400,
images/image_734_seed_1.png,37,0,0,0,1,"[9, 19, 31, 42, 56, 68, 69, 70, 71]",,,,,0,109,109,109,614.5733379020003,,,,,,,,,,,,,,,,,,,,,,,,,,,,,,,,,,,,,,,,,,,,,,614.5531186240005,614.5532393280009,614.5532520720008,614.5733379020003,614.5733379020003,615.5681564540009,615.5681564540009,618.5750903900007,618.5750903900007,618.5750903900007,618.5750903900007,618.5518744420006,1,1,2.770434538999325,None,None,618.5524685020009,618.5525111980005,None,618.5526176510011,618.5526735890016,None,618.5527821630003,618.5528176690004,None,,,,,,,,,,,,,,,2,001,0,,2024-05-30_13h54.26.491,replicate_nsd,2023.2.3,59.979858883651204,2024-05-30 13h54.39.749683 -0400,
images/image_479_seed_1.png,38,0,0,0,1,"[9, 19, 31, 42, 56, 68, 69, 70, 71]",,,,,0,110,110,110,618.5750903900007,,,,,,,,,,,,,,,,,,,,,,,,,,,,,,,,,,,,,,,,,,,,,,618.5531907900004,618.5533121230001,618.5533246820014,618.5750903900007,618.5750903900007,619.5674787450007,619.5674787450007,622.5749341290011,622.5749341290011,622.5749341290011,622.5749341290011,622.5511675890011,1,1,2.5629760329993587,None,None,622.5516471800001,622.5516816550007,None,622.5517662820002,622.5518098310004,None,622.5518957130007,622.5519243170002,None,,,,,,,,,,,,,,,2,001,0,,2024-05-30_13h54.26.491,replicate_nsd,2023.2.3,59.979858883651204,2024-05-30 13h54.39.749683 -0400,
images/image_410_seed_1.png,39,0,0,0,1,"[9, 19, 31, 42, 56, 68, 69, 70, 71]",,,,,0,111,111,111,622.5749341290011,,,,,,,,,,,,,,,,,,,,,,,,,,,,,,,,,,,,,,,,,,,,,,622.5522225460008,622.5523187830004,622.5523286500011,622.5749341290011,622.5749341290011,623.5683547980007,623.5683547980007,626.5740937099999,626.5740937099999,626.5740937099999,626.5740937099999,626.5521349610008,1,1,2.0791395970009034,None,None,626.5527316860007,626.5527752960006,None,626.5528829560008,626.5529383900011,None,626.5530478200017,626.5530851560015,None,,,,,,,,,,,,,,,2,001,0,,2024-05-30_13h54.26.491,replicate_nsd,2023.2.3,59.979858883651204,2024-05-30 13h54.39.749683 -0400,
images/image_175_seed_1.png,40,0,0,0,1,"[9, 19, 31, 42, 56, 68, 69, 70, 71]",,,,,0,112,112,112,626.5740937099999,,,,,,,,,,,,,,,,,,,,,,,,,,,,,,,,,,,,,,,,,,,,,,626.5534629040012,626.5535858900002,626.5535984550006,626.5740937099999,626.5740937099999,627.5684155580002,627.5684155580002,630.5745714450004,630.5745714450004,630.5745714450004,630.5745714450004,630.5524731560017,None,0,,,None,630.5530787550015,630.5531207130007,None,630.5532320540005,630.5532873110005,None,630.5533994920006,630.5534350360012,None,,,,,,,,,,,,,,,2,001,0,,2024-05-30_13h54.26.491,replicate_nsd,2023.2.3,59.979858883651204,2024-05-30 13h54.39.749683 -0400,
images/image_706_seed_1.png,41,0,0,0,1,"[9, 19, 31, 42, 56, 68, 69, 70, 71]",,,,,0,113,113,113,630.5745714450004,,,,,,,,,,,,,,,,,,,,,,,,,,,,,,,,,,,,,,,,,,,,,,630.5538120990004,630.5539329420008,630.553945859001,630.5745714450004,630.5745714450004,631.5676630970011,631.5676630970011,634.5678670640009,634.5678670640009,634.5678670640009,634.5678670640009,634.5515090730005,1,1,1.904931769000541,None,None,634.5519963470015,634.5520312440003,None,634.5521189150004,634.5521655200009,None,634.5522543300012,634.5522842280006,None,,,,,,,,,,,,,,,2,001,0,,2024-05-30_13h54.26.491,replicate_nsd,2023.2.3,59.979858883651204,2024-05-30 13h54.39.749683 -0400,
blank.jpg,42,1,0,0,1,"[9, 19, 31, 42, 56, 68, 69, 70, 71]",,,,,0,114,114,114,634.5678670640009,,,,,,,,,,,,,,,,,,,,,,,,,,,,,,,,,,,,,,,,,,,,,,634.5525888540014,634.5526893140013,634.5526993870008,,,,,,,,,634.5555008320007,None,0,,,None,634.555768391001,638.5523756470011,None,638.5525914600003,638.5526527480015,None,638.552780254,638.5528180990004,None,634.5678670640009,634.5678670640009,638.5749112510002,638.5749112510002,,,,,,,,,,,2,001,0,,2024-05-30_13h54.26.491,replicate_nsd,2023.2.3,59.979858883651204,2024-05-30 13h54.39.749683 -0400,
images/image_350_seed_1.png,43,0,0,0,1,"[9, 19, 31, 42, 56, 68, 69, 70, 71]",,,,,0,115,115,115,638.5749112510002,,,,,,,,,,,,,,,,,,,,,,,,,,,,,,,,,,,,,,,,,,,,,,638.5532191500006,638.5533414270012,638.5533543320016,638.5749112510002,638.5749112510002,639.5688382540011,639.5688382540011,642.574626566,642.574626566,642.574626566,642.574626566,642.5524831890016,1,1,1.02959612199993,None,None,642.553078762001,642.5531239450011,None,642.5532317860016,642.5532871950018,None,642.5533962460013,642.553432828001,None,,,,,,,,,,,,,,,2,001,0,,2024-05-30_13h54.26.491,replicate_nsd,2023.2.3,59.979858883651204,2024-05-30 13h54.39.749683 -0400,
images/image_212_seed_1.png,44,0,0,0,1,"[9, 19, 31, 42, 56, 68, 69, 70, 71]",,,,,0,116,116,116,642.574626566,,,,,,,,,,,,,,,,,,,,,,,,,,,,,,,,,,,,,,,,,,,,,,642.5538107890006,642.5539323630001,642.5539451010009,642.574626566,642.574626566,643.5682215980014,643.5682215980014,646.5748438930004,646.5748438930004,646.5748438930004,646.5748438930004,646.5516927290009,1,1,1.628454146999502,None,None,646.5521118850011,646.5521425570005,None,646.5522154350001,646.5522542520011,None,646.5523302280017,646.552355666001,None,,,,,,,,,,,,,,,2,001,0,,2024-05-30_13h54.26.491,replicate_nsd,2023.2.3,59.979858883651204,2024-05-30 13h54.39.749683 -0400,
images/image_695_seed_1.png,45,0,0,0,1,"[9, 19, 31, 42, 56, 68, 69, 70, 71]",,,,,0,117,117,117,646.5748438930004,,,,,,,,,,,,,,,,,,,,,,,,,,,,,,,,,,,,,,,,,,,,,,646.5526149650013,646.5526998220012,646.5527086340007,646.5748438930004,646.5748438930004,647.5688461230002,647.5688461230002,650.573960269001,650.573960269001,650.573960269001,650.573960269001,650.5527581310016,1,1,2.0675901070007967,None,None,650.5533568310002,650.5533994190009,None,650.5535064240012,650.5535609760009,None,650.5536702360005,650.5537063930005,None,,,,,,,,,,,,,,,2,001,0,,2024-05-30_13h54.26.491,replicate_nsd,2023.2.3,59.979858883651204,2024-05-30 13h54.39.749683 -0400,
images/image_201_seed_1.png,46,0,0,0,1,"[9, 19, 31, 42, 56, 68, 69, 70, 71]",,,,,0,118,118,118,650.573960269001,,,,,,,,,,,,,,,,,,,,,,,,,,,,,,,,,,,,,,,,,,,,,,650.5540817740002,650.5542036770003,650.5542164040016,650.573960269001,650.573960269001,651.5690247780003,651.5690247780003,654.5745483090013,654.5745483090013,654.5745483090013,654.5745483090013,654.5525181800003,1,1,2.3114257069992163,None,None,654.5531162510015,654.5531587080004,None,654.5532663390004,654.5533226350017,None,654.5534317320016,654.5534692090005,None,,,,,,,,,,,,,,,2,001,0,,2024-05-30_13h54.26.491,replicate_nsd,2023.2.3,59.979858883651204,2024-05-30 13h54.39.749683 -0400,
images/image_27_seed_1.png,47,0,0,0,1,"[9, 19, 31, 42, 56, 68, 69, 70, 71]",,,,,0,119,119,119,654.5745483090013,,,,,,,,,,,,,,,,,,,,,,,,,,,,,,,,,,,,,,,,,,,,,,654.5538446200007,654.553967580001,654.5539802920011,654.5745483090013,654.5745483090013,655.5683145230014,655.5683145230014,658.5683990960006,658.5683990960006,658.5683990960006,658.5683990960006,658.552363611001,1,1,2.435136029000205,None,None,658.5529641100002,658.5530073560003,None,658.5531157410005,658.5531719810006,None,658.5532819020009,658.5533187360015,None,,,,,,,,,,,,,,,2,001,0,,2024-05-30_13h54.26.491,replicate_nsd,2023.2.3,59.979858883651204,2024-05-30 13h54.39.749683 -0400,
images/w_yoga_studio2.jpg,48,0,0,0,1,"[9, 19, 31, 42, 56, 68, 69, 70, 71]",,,,,0,120,120,120,658.5683990960006,,,,,,,,,,,,,,,,,,,,,,,,,,,,,,,,,,,,,,,,,,,,,,658.553699641001,658.5538411800007,658.5538516150009,658.5683990960006,658.5683990960006,659.5691500390003,659.5691500390003,662.5763338610013,662.5763338610013,662.5763338610013,662.5763338610013,662.5528852010011,1,1,1.677458681000644,None,None,662.5534795850017,662.5535222550006,None,662.5536290290001,662.553683913,None,662.5537931430008,662.5538290680015,None,,,,,,,,,,,,,,,2,001,0,,2024-05-30_13h54.26.491,replicate_nsd,2023.2.3,59.979858883651204,2024-05-30 13h54.39.749683 -0400,
images/image_107_seed_1.png,49,0,0,0,1,"[9, 19, 31, 42, 56, 68, 69, 70, 71]",,,,,0,121,121,121,662.5763338610013,,,,,,,,,,,,,,,,,,,,,,,,,,,,,,,,,,,,,,,,,,,,,,662.5542085640009,662.5543306950003,662.5543433500006,662.5763338610013,662.5763338610013,663.569344988,663.569344988,666.5750033960012,666.5750033960012,666.5750033960012,666.5750033960012,666.5531206800006,1,1,1.8340900900002453,None,None,666.5537092620016,666.5537526500011,None,666.5538595130001,666.5539154810012,None,666.5540258300007,666.5540628970011,None,,,,,,,,,,,,,,,2,001,0,,2024-05-30_13h54.26.491,replicate_nsd,2023.2.3,59.979858883651204,2024-05-30 13h54.39.749683 -0400,
images/image_521_seed_1.png,50,0,0,0,1,"[9, 19, 31, 42, 56, 68, 69, 70, 71]",,,,,0,122,122,122,666.5750033960012,,,,,,,,,,,,,,,,,,,,,,,,,,,,,,,,,,,,,,,,,,,,,,666.5544378930008,666.554559862001,666.5545724170006,666.5750033960012,666.5750033960012,667.5686173770009,667.5686173770009,670.576137547001,670.576137547001,670.576137547001,670.576137547001,670.5526533330012,1,1,1.8619598759996734,None,None,670.5532535990005,670.5532992850003,None,670.553407722,670.553464169001,None,670.5535743740002,670.553610211,None,,,,,,,,,,,,,,,2,001,0,,2024-05-30_13h54.26.491,replicate_nsd,2023.2.3,59.979858883651204,2024-05-30 13h54.39.749683 -0400,
images/image_75_seed_1.png,51,0,0,0,1,"[9, 19, 31, 42, 56, 68, 69, 70, 71]",,,,,0,123,123,123,670.576137547001,,,,,,,,,,,,,,,,,,,,,,,,,,,,,,,,,,,,,,,,,,,,,,670.5539878440013,670.5541287530014,670.5541391550014,670.576137547001,670.576137547001,671.5695710130003,671.5695710130003,674.5753817350014,674.5753817350014,674.5753817350014,674.5753817350014,674.5531100510016,1,1,2.5030165879998094,None,None,674.553718223,674.5537618920007,None,674.5538713080005,674.5539274860002,None,674.554038358001,674.5540757610015,None,,,,,,,,,,,,,,,2,001,0,,2024-05-30_13h54.26.491,replicate_nsd,2023.2.3,59.979858883651204,2024-05-30 13h54.39.749683 -0400,
images/image_236_seed_1.png,52,0,0,0,1,"[9, 19, 31, 42, 56, 68, 69, 70, 71]",,,,,0,124,124,124,674.5753817350014,,,,,,,,,,,,,,,,,,,,,,,,,,,,,,,,,,,,,,,,,,,,,,674.5544545910016,674.5545777420011,674.554590922,674.5753817350014,674.5753817350014,675.5695862350003,675.5695862350003,678.5760649020012,678.5760649020012,678.5760649020012,678.5760649020012,678.5534336560013,1,1,2.156996510000681,None,None,678.5540388980007,678.5540818660011,None,678.5541917750015,678.5542489030013,None,678.5543604700015,678.554397883001,None,,,,,,,,,,,,,,,2,001,0,,2024-05-30_13h54.26.491,replicate_nsd,2023.2.3,59.979858883651204,2024-05-30 13h54.39.749683 -0400,
images/paired_image_483_1.png,53,0,0,0,1,"[9, 19, 31, 42, 56, 68, 69, 70, 71]",,,,,0,125,125,125,678.5760649020012,,,,,,,,,,,,,,,,,,,,,,,,,,,,,,,,,,,,,,,,,,,,,,678.5547780230008,678.5549019660011,678.5549148760001,678.5760649020012,678.5760649020012,679.5689330230016,679.5689330230016,682.5770852180012,682.5770852180012,682.5770852180012,682.5770852180012,682.5531470280002,1,1,2.704673370000819,None,None,682.553741523001,682.553784271,None,682.553891902,682.5539474850011,None,682.5540647460002,682.5540942930002,None,,,,,,,,,,,,,,,2,001,0,,2024-05-30_13h54.26.491,replicate_nsd,2023.2.3,59.979858883651204,2024-05-30 13h54.39.749683 -0400,
images/image_653_seed_1.png,54,0,0,0,1,"[9, 19, 31, 42, 56, 68, 69, 70, 71]",,,,,0,126,126,126,682.5770852180012,,,,,,,,,,,,,,,,,,,,,,,,,,,,,,,,,,,,,,,,,,,,,,682.5543942070017,682.5544923080015,682.5545022060014,682.5770852180012,682.5770852180012,683.569793480001,683.569793480001,686.5754257900007,686.5754257900007,686.5754257900007,686.5754257900007,686.5538365600005,1,1,2.318638740998722,None,None,686.5544305920012,686.5544740780006,None,686.554581843,686.5546375560007,None,686.5547468220011,686.5547835700017,None,,,,,,,,,,,,,,,2,001,0,,2024-05-30_13h54.26.491,replicate_nsd,2023.2.3,59.979858883651204,2024-05-30 13h54.39.749683 -0400,
images/image_440_seed_1.png,55,0,0,0,1,"[9, 19, 31, 42, 56, 68, 69, 70, 71]",,,,,0,127,127,127,686.5754257900007,,,,,,,,,,,,,,,,,,,,,,,,,,,,,,,,,,,,,,,,,,,,,,686.5551606860008,686.555281754001,686.5552947660017,686.5754257900007,686.5754257900007,687.5697799070003,687.5697799070003,690.569902833,690.569902833,690.569902833,690.569902833,690.553594721001,1,1,2.5346532769999612,None,None,690.5541899890013,690.5542339390013,None,690.554340259001,690.5543953350007,None,690.5545042610011,690.5545409000006,None,,,,,,,,,,,,,,,2,001,0,,2024-05-30_13h54.26.491,replicate_nsd,2023.2.3,59.979858883651204,2024-05-30 13h54.39.749683 -0400,
blank.jpg,56,1,0,0,1,"[9, 19, 31, 42, 56, 68, 69, 70, 71]",,,,,0,128,128,128,690.569902833,,,,,,,,,,,,,,,,,,,,,,,,,,,,,,,,,,,,,,,,,,,,,,690.554916422001,690.5550387420008,690.5550513990001,,,,,,,,,690.5589919530012,None,0,,,None,690.5593789140003,694.5530023910014,None,694.5532147040012,694.5532763190004,None,694.5534076330005,694.5534467790003,None,690.569902833,690.569902833,694.5768248380009,694.5768248380009,,,,,,,,,,,2,001,0,,2024-05-30_13h54.26.491,replicate_nsd,2023.2.3,59.979858883651204,2024-05-30 13h54.39.749683 -0400,
images/image_337_seed_1.png,57,0,0,0,1,"[9, 19, 31, 42, 56, 68, 69, 70, 71]",,,,,0,129,129,129,694.5768248380009,,,,,,,,,,,,,,,,,,,,,,,,,,,,,,,,,,,,,,,,,,,,,,694.5538442450015,694.55396974,694.5539827660014,694.5768248380009,694.5768248380009,695.570152956001,695.570152956001,698.5757891190005,698.5757891190005,698.5757891190005,698.5757891190005,698.5539178200015,1,1,1.6194257570004993,None,None,698.5545125150002,698.5545584370011,None,698.5546670450003,698.5547227390016,None,698.5548331990012,698.5548708170008,None,,,,,,,,,,,,,,,2,001,0,,2024-05-30_13h54.26.491,replicate_nsd,2023.2.3,59.979858883651204,2024-05-30 13h54.39.749683 -0400,
images/image_424_seed_1.png,58,0,0,0,1,"[9, 19, 31, 42, 56, 68, 69, 70, 71]",,,,,0,130,130,130,698.5757891190005,,,,,,,,,,,,,,,,,,,,,,,,,,,,,,,,,,,,,,,,,,,,,,698.555247440001,698.5553680870016,698.5553805080017,698.5757891190005,698.5757891190005,699.5702530620001,699.5702530620001,702.5774730250014,702.5774730250014,702.5774730250014,702.5774730250014,702.5540377020006,1,1,2.1223002429996995,None,None,702.5546304140007,702.5546733240008,None,702.5547801190005,702.5548353670001,None,702.5549436290003,702.5549800460012,None,,,,,,,,,,,,,,,2,001,0,,2024-05-30_13h54.26.491,replicate_nsd,2023.2.3,59.979858883651204,2024-05-30 13h54.39.749683 -0400,
images/image_508_seed_1.png,59,0,0,0,1,"[9, 19, 31, 42, 56, 68, 69, 70, 71]",,,,,0,131,131,131,702.5774730250014,,,,,,,,,,,,,,,,,,,,,,,,,,,,,,,,,,,,,,,,,,,,,,702.5553518470006,702.5554730780004,702.5554854260008,702.5774730250014,702.5774730250014,703.5694444620003,703.5694444620003,706.577762668001,706.577762668001,706.577762668001,706.577762668001,706.553604484001,1,1,2.1501294750014495,None,None,706.5542115560002,706.5542567290013,None,706.554365506001,706.5544217170009,None,706.5545335070001,706.5545701320007,None,,,,,,,,,,,,,,,2,001,0,,2024-05-30_13h54.26.491,replicate_nsd,2023.2.3,59.979858883651204,2024-05-30 13h54.39.749683 -0400,
images/image_653_seed_1.png,60,0,1,0,1,"[9, 19, 31, 42, 56, 68, 69, 70, 71]",,,,,0,132,132,132,706.577762668001,,,,,,,,,,,,,,,,,,,,,,,,,,,,,,,,,,,,,,,,,,,,,,706.5549520870009,706.5550934780003,706.5551038820013,706.577762668001,706.577762668001,707.5701832560007,707.5701832560007,710.5811103740016,710.5811103740016,710.5811103740016,710.5811103740016,710.5542198010007,2,1,1.0993727460008813,None,None,710.554815466001,710.5548584560001,None,710.5549652280006,710.555020703001,None,710.5551286500013,710.5551653330003,None,,,,,,,,,,,,,,,2,001,0,,2024-05-30_13h54.26.491,replicate_nsd,2023.2.3,59.979858883651204,2024-05-30 13h54.39.749683 -0400,
images/image_371_seed_1.png,61,0,0,0,1,"[9, 19, 31, 42, 56, 68, 69, 70, 71]",,,,,0,133,133,133,710.5811103740016,,,,,,,,,,,,,,,,,,,,,,,,,,,,,,,,,,,,,,,,,,,,,,710.555539627001,710.5556599350002,710.55567256,710.5811103740016,710.5811103740016,711.5705106920013,711.5705106920013,714.5817987960017,714.5817987960017,714.5817987960017,714.5817987960017,714.5542756140003,1,1,2.3339242179990833,None,None,714.5548726120014,714.5549158160011,None,714.5550239020013,714.5550793420007,None,714.5551885900004,714.5552245380004,None,,,,,,,,,,,,,,,2,001,0,,2024-05-30_13h54.26.491,replicate_nsd,2023.2.3,59.979858883651204,2024-05-30 13h54.39.749683 -0400,
